Standard output of YIS Manager:
  TID,     AccX,     AccY,     AccZ,    AngVX,    AngVY,    AngVZ,     MagX,     MagY,     MagZ, NormMagX, NormMagY, NormMagZ,    Pitch,     Roll,      Yaw,       q0,       q1,       q2,       q3, 
15456,  -0.340991,  -9.757752,  -0.201705,  -0.115142,   0.171358,  -0.332378,   0.016671,   1.077781,  -0.805045, -256.500000, -142.500000, -441.000000,   2.080222, -91.084400, -178.364432,   0.022949,   0.002526,   0.713727,  -0.699982, 
15457,  -0.361199,  -9.799276,  -0.213162,  -0.094067,   0.116954,  -0.136812,   0.019039,   1.072982,  -0.801409, -255.000000, -144.000000, -439.500000,   2.078199, -91.086928, -178.368912,   0.022909,   0.002541,   0.713743,  -0.699968, 
15458,  -0.345219,  -9.703211,  -0.145043,  -0.108414,   0.108945,  -0.163222,   0.012168,   1.058773,  -0.802493, -258.000000, -148.500000, -439.500000,   2.078017, -91.084992, -178.369216,   0.022905,   0.002542,   0.713731,  -0.699980, 
15459,  -0.337858,  -9.802922,  -0.210040,   0.121118,   0.160732,  -0.177179,   0.006388,   1.060676,  -0.792193, -261.000000, -147.000000, -436.500000,   2.074456, -91.085248, -178.362000,   0.022928,   0.002475,   0.713732,  -0.699977, 
15460,  -0.352755,  -9.762964,  -0.197599,  -0.221415,   0.251267,  -0.216089,   0.016158,   1.075337,  -0.791433, -256.500000, -142.500000, -436.500000,   2.072353, -91.087464, -178.357056,   0.022945,   0.002431,   0.713746,  -0.699963, 
15461,  -0.337518,  -9.695466,  -0.160981,   0.018231,   0.160476,  -0.274049,   0.014645,   1.084208,  -0.817756, -258.000000, -141.000000, -445.500000,   2.068766, -91.085224, -178.359088,   0.022910,   0.002423,   0.713732,  -0.699978, 
15462,  -0.378536,  -9.787061,  -0.177874,  -0.077158,   0.163680,  -0.270208,   0.005233,   1.073983,  -0.817939, -262.500000, -144.000000, -445.500000,   2.070492, -91.083920, -178.350560,   0.022973,   0.002380,   0.713724,  -0.699984, 
15463,  -0.314475,  -9.787683,  -0.194511,  -0.015448,   0.204325,  -0.412888,   0.001276,   1.063031,  -0.809695, -264.000000, -147.000000, -442.500000,   2.064143, -91.084056, -178.336544,   0.023019,   0.002254,   0.713725,  -0.699981, 
15464,  -0.374143,  -9.750856,  -0.165226,  -0.137748,   0.170504,  -0.510569,   0.010345,   1.071628,  -0.800437, -259.500000, -144.000000, -439.500000,   2.061492, -91.083216, -178.323824,   0.023080,   0.002159,   0.713720,  -0.699984, 
15465,  -0.314187,  -9.730366,  -0.192700,   0.096730,   0.211554,  -0.690018,   0.016500,   1.076966,  -0.800508, -256.500000, -142.500000, -439.500000,   2.054043, -91.081096, -178.323968,   0.023032,   0.002115,   0.713707,  -0.699999, 
15466,  -0.358407,  -9.830037,  -0.202540,   0.036511,   0.157027,  -0.944036,   0.019723,   1.076240,  -0.819559, -255.000000, -144.000000, -445.500000,   2.045085, -91.081160, -178.331408,   0.022931,   0.002106,   0.713708,  -0.700002, 
15467,  -0.341207,  -9.718486,  -0.166926,  -0.118141,   0.157640,  -0.893511,   0.014440,   1.077781,  -0.832524, -258.000000, -144.000000, -450.000000,   2.037071, -91.080424, -178.337232,   0.022846,   0.002094,   0.713704,  -0.700009, 
15468,  -0.327755,  -9.798283,  -0.185175,   0.088381,   0.174172,  -1.047595,   0.010825,   1.068458,  -0.833355, -259.500000, -147.000000, -450.000000,   2.026201, -91.079464, -178.337648,   0.022776,   0.002030,   0.713698,  -0.700018, 
15469,  -0.368487,  -9.808133,  -0.201420,  -0.049838,   0.122033,  -0.867282,   0.018852,   1.069361,  -0.806524, -255.000000, -145.500000, -441.000000,   2.018400, -91.080856, -178.340576,   0.022709,   0.002000,   0.713707,  -0.700011, 
15470,  -0.347257,  -9.732048,  -0.169931,  -0.101047,   0.194514,  -0.631579,   0.007635,   1.074797,  -0.794998, -261.000000, -142.500000, -438.000000,   2.013973, -91.080752, -178.339152,   0.022690,   0.001965,   0.713706,  -0.700012, 
15471,  -0.342047,  -9.797596,  -0.205346,   0.052747,   0.132381,  -0.535256,   0.011062,   1.080499,  -0.799282, -259.500000, -141.000000, -439.500000,   2.010246, -91.081768, -178.332560,   0.022707,   0.001900,   0.713712,  -0.700005, 
15472,  -0.371205,  -9.733711,  -0.177192,  -0.204678,   0.205724,  -0.223483,   0.017046,   1.085023,  -0.794815, -256.500000, -139.500000, -438.000000,   2.013297, -91.081840, -178.330464,   0.022739,   0.001906,   0.713713,  -0.700004, 
15473,  -0.321503,  -9.758102,  -0.196904,  -0.195686,   0.222789,  -0.362328,   0.011233,   1.081313,  -0.803820, -259.500000, -141.000000, -441.000000,   2.008301, -91.081872, -178.333152,   0.022692,   0.001892,   0.713713,  -0.700005, 
15474,  -0.359488,  -9.765712,  -0.153520,  -0.075741,   0.223360,  -0.195641,   0.017338,   1.078232,  -0.832848, -256.500000, -144.000000, -450.000000,   2.010623, -91.079656, -178.333152,   0.022706,   0.001907,   0.713700,  -0.700018, 
15475,  -0.322694,  -9.754559,  -0.194550,   0.000925,   0.142589,  -0.300666,   0.020236,   1.078684,  -0.833172, -255.000000, -144.000000, -450.000000,   2.007099, -91.080552, -178.343632,   0.022620,   0.001950,   0.713705,  -0.700016, 
15476,  -0.326405,  -9.749872,  -0.162705,   0.027616,   0.203830,  -0.490749,   0.011948,   1.049539,  -0.826914, -258.000000, -153.000000, -447.000000,   2.001049, -91.079800, -178.350176,   0.022543,   0.001954,   0.713701,  -0.700023, 
15477,  -0.322736,  -9.745729,  -0.174479,   0.071884,   0.272955,  -0.871963,   0.014487,   1.045555,  -0.827815, -256.500000, -154.500000, -447.000000,   1.991990, -91.077880, -178.356272,   0.022449,   0.001937,   0.713689,  -0.700038, 
15478,  -0.341483,  -9.784051,  -0.181136,   0.001752,   0.103372,  -1.014995,   0.016296,   1.070539,  -0.815275, -256.500000, -145.500000, -444.000000,   1.983137, -91.077728, -178.361856,   0.022360,   0.001918,   0.713689,  -0.700042, 
15479,  -0.323372,  -9.742794,  -0.162678,  -0.032084,   0.156871,  -1.005715,   0.002694,   1.077967,  -0.817038, -264.000000, -142.500000, -445.500000,   1.973017, -91.076496, -178.347312,   0.022385,   0.001766,   0.713681,  -0.700049, 
15480,  -0.340188,  -9.782837,  -0.201782,   0.036814,   0.165258,  -1.074430,   0.003223,   1.083217,  -0.820998, -264.000000, -141.000000, -447.000000,   1.961648, -91.076336, -178.334624,   0.022392,   0.001617,   0.713680,  -0.700049, 
15481,  -0.340245,  -9.812342,  -0.223638,  -0.057711,   0.184016,  -0.927188,   0.008677,   1.082491,  -0.812570, -261.000000, -141.000000, -444.000000,   1.953849, -91.079032, -178.329008,   0.022378,   0.001534,   0.713697,  -0.700033, 
15482,  -0.349034,  -9.735570,  -0.178799,  -0.117745,   0.202253,  -0.866605,   0.013039,   1.065652,  -0.815529, -258.000000, -147.000000, -444.000000,   1.949132, -91.079072, -178.330192,   0.022342,   0.001513,   0.713698,  -0.700034, 
15483,  -0.306405,  -9.744553,  -0.207405,  -0.040656,   0.156846,  -1.014513,   0.016467,   1.071353,  -0.819813, -256.500000, -145.500000, -445.500000,   1.937367, -91.080192, -178.339568,   0.022211,   0.001499,   0.713705,  -0.700031, 
15484,  -0.400619,  -9.748351,  -0.183323,   0.002568,   0.174188,  -1.083352,   0.007414,   1.065563,  -0.819418, -261.000000, -147.000000, -445.500000,   1.935841, -91.080176, -178.330432,   0.022257,   0.001433,   0.713705,  -0.700030, 
15485,  -0.280406,  -9.791986,  -0.178916,  -0.006138,   0.147075,  -1.170959,   0.016654,   1.074974,  -0.814698, -256.500000, -144.000000, -444.000000,   1.922721, -91.079112, -178.339888,   0.022118,   0.001412,   0.713699,  -0.700041, 
15486,  -0.255973,  -9.681627,  -0.153872,   0.028902,   0.163196,  -1.483592,   0.026049,   1.082393,  -0.824167, -252.000000, -142.500000, -447.000000,   1.901385, -91.076264, -178.365440,   0.021829,   0.001441,   0.713682,  -0.700069, 
15487,  -0.285826,  -9.816740,  -0.201990,  -0.047414,   0.187888,  -1.910439,   0.016980,   1.073797,  -0.833425, -256.500000, -145.500000, -450.000000,   1.878092, -91.076472, -178.377968,   0.021607,   0.001377,   0.713684,  -0.700075, 
15488,  -0.297658,  -9.758842,  -0.168989,  -0.081154,   0.213591,  -2.119224,   0.002677,   1.075160,  -0.826690, -264.000000, -144.000000, -448.500000,   1.858058, -91.077368, -178.366224,   0.021554,   0.001181,   0.713690,  -0.700071, 
15489,  -0.266415,  -9.757754,  -0.185870,   0.030030,   0.123049,  -2.380697,   0.010500,   1.069636,  -0.814627, -259.500000, -145.500000, -444.000000,   1.831087, -91.077944, -178.369104,   0.021369,   0.001034,   0.713694,  -0.700073, 
15490,  -0.287784,  -9.715128,  -0.182460,  -0.002750,   0.219124,  -2.744875,   0.019194,   1.070990,  -0.815599, -255.000000, -145.500000, -444.000000,   1.803963, -91.077248, -178.384080,   0.021109,   0.000961,   0.713691,  -0.700086, 
15491,  -0.303682,  -9.798927,  -0.209193,  -0.132729,   0.067203,  -2.940470,   0.007944,   1.070813,  -0.823378, -261.000000, -145.500000, -447.000000,   1.775109, -91.078376, -178.382976,   0.020936,   0.000778,   0.713699,  -0.700085, 
15492,  -0.265112,  -9.727056,  -0.173446,  -0.019713,   0.191012,  -3.032758,   0.014269,   1.076966,  -0.827986, -258.000000, -144.000000, -448.500000,   1.743184, -91.077984, -178.392368,   0.020680,   0.000641,   0.713698,  -0.700095, 
15493,  -0.252610,  -9.763895,  -0.197903,  -0.018374,   0.179639,  -3.324977,   0.016638,   1.072168,  -0.824350, -256.500000, -145.500000, -447.000000,   1.708350, -91.077680, -178.406624,   0.020376,   0.000517,   0.713697,  -0.700107, 
15494,  -0.266958,  -9.738861,  -0.176419,  -0.087565,   0.170230,  -3.651783,   0.016108,   1.066918,  -0.820390, -256.500000, -147.000000, -445.500000,   1.668015, -91.078392, -178.421616,   0.020033,   0.000364,   0.713703,  -0.700114, 
15495,  -0.246369,  -9.771847,  -0.172681,   0.050890,   0.145138,  -3.858608,   0.019536,   1.072619,  -0.824674, -255.000000, -145.500000, -447.000000,   1.627237, -91.076128, -178.441184,   0.019660,   0.000237,   0.713691,  -0.700140, 
15496,  -0.275462,  -9.765999,  -0.182402,  -0.103992,   0.167965,  -4.104558,   0.023118,   1.076329,  -0.843148, -253.500000, -145.500000, -453.000000,   1.587648, -91.075712, -178.466128,   0.019261,   0.000150,   0.713690,  -0.700156, 
15497,  -0.255858,  -9.753422,  -0.173789,   0.060416,   0.245205,  -4.390506,   0.029272,   1.081667,  -0.843219, -250.500000, -144.000000, -453.000000,   1.547433, -91.073872, -178.500160,   0.018802,   0.000117,   0.713681,  -0.700181, 
15498,  -0.236465,  -9.761420,  -0.186830,  -0.085034,   0.272422,  -4.546344,   0.022434,   1.073071,  -0.824998, -253.500000, -145.500000, -447.000000,   1.502705, -91.073704, -178.525376,   0.018370,   0.000001,   0.713683,  -0.700196, 
15499,  -0.238881,  -9.774486,  -0.182595,  -0.045948,   0.227621,  -4.786523,   0.013039,   1.065652,  -0.815529, -258.000000, -147.000000, -444.000000,   1.454706, -91.073528, -178.538016,   0.017994,  -0.000213,   0.713684,  -0.700209, 
15500,  -0.226331,  -9.774458,  -0.189714,  -0.040825,   0.332562,  -4.945123,   0.007789,   1.072805,  -0.809188, -261.000000, -144.000000, -442.500000,   1.407534, -91.074520, -178.541856,   0.017677,  -0.000478,   0.713692,  -0.700212, 
15501,  -0.170510,  -9.731707,  -0.174187,  -0.014496,   0.232862,  -5.296656,   0.007243,   1.064749,  -0.814880, -261.000000, -147.000000, -444.000000,   1.346776, -91.073368, -178.551728,   0.017238,  -0.000787,   0.713683,  -0.700228, 
15502,  -0.177254,  -9.768196,  -0.167508,   0.012445,   0.308719,  -6.111154,   0.003052,   1.082402,  -0.816460, -264.000000, -141.000000, -445.500000,   1.285473, -91.070208, -178.553360,   0.016847,  -0.001151,   0.713661,  -0.700256, 
15503,  -0.144494,  -9.749669,  -0.175579,   0.011047,   0.249093,  -6.758181,   0.009753,   1.095797,  -0.810838, -261.000000, -136.500000, -444.000000,   1.211588, -91.069416, -178.568768,   0.016292,  -0.001507,   0.713654,  -0.700272, 
15504,  -0.163274,  -9.728075,  -0.165016,   0.082755,   0.248587,  -7.408188,   0.014645,   1.084208,  -0.817756, -258.000000, -141.000000, -445.500000,   1.137026, -91.067240, -178.590752,   0.015694,  -0.001826,   0.713639,  -0.700298, 
15505,  -0.128514,  -9.761787,  -0.189632,   0.066765,   0.258213,  -8.049309,   0.002865,   1.078781,  -0.821575, -264.000000, -142.500000, -447.000000,   1.052729, -91.065912, -178.598896,   0.015119,  -0.002290,   0.713628,  -0.700317, 
15506,  -0.196994,  -9.765744,  -0.172965,  -0.070067,   0.280223,  -8.253495,  -0.001279,   1.064209,  -0.818446, -265.500000, -147.000000, -445.500000,   0.972248, -91.064416, -178.599648,   0.014613,  -0.002777,   0.713616,  -0.700335, 
15507,  -0.143929,  -9.754374,  -0.188693,   0.014300,   0.304244,  -8.350772,  -0.003802,   1.070999,  -0.807892, -267.000000, -144.000000, -442.500000,   0.891635, -91.062720, -178.597824,   0.014123,  -0.003281,   0.713603,  -0.700355, 
15508,  -0.098578,  -9.750753,  -0.185205,   0.016813,   0.313578,  -8.652280,  -0.010874,   1.091008,  -0.799495, -271.500000, -136.500000, -441.000000,   0.801707, -91.063288, -178.590544,   0.013607,  -0.003876,   0.713602,  -0.700361, 
15509,  -0.140833,  -9.770676,  -0.185009,   0.122730,   0.372497,  -8.874409,  -0.006730,   1.105580,  -0.802624, -270.000000, -132.000000, -442.500000,   0.718861, -91.061744, -178.587824,   0.013108,  -0.004399,   0.713590,  -0.700379, 
15510,  -0.080061,  -9.760880,  -0.183303,   0.094333,   0.266841,  -9.061296,   0.006700,   1.097338,  -0.796324, -262.500000, -135.000000, -439.500000,   0.626151, -91.060904, -178.611104,   0.012389,  -0.004821,   0.713582,  -0.700397, 
15511,  -0.047466,  -9.735353,  -0.175895,   0.000981,   0.339014,  -9.294086,   0.007822,   1.078418,  -0.789883, -261.000000, -141.000000, -436.500000,   0.531784, -91.059408, -178.637840,   0.011638,  -0.005231,   0.713570,  -0.700419, 
15512,  -0.013317,  -9.727445,  -0.194586,   0.138852,   0.289358,  -9.861075,   0.002556,   1.082765,  -0.793195, -264.000000, -139.500000, -438.000000,   0.429789, -91.058328, -178.660288,   0.010865,  -0.005715,   0.713560,  -0.700438, 
15513,  -0.018106,  -9.740163,  -0.195614,   0.078951,   0.301188, -10.477499,  -0.005966,   1.082225,  -0.796760, -268.500000, -139.500000, -439.500000,   0.324143, -91.058480, -178.671424,   0.010140,  -0.006291,   0.713557,  -0.700450, 
15514,   0.045226,  -9.757834,  -0.187679,   0.081115,   0.300509, -11.193064,  -0.006170,   1.075798,  -0.811528, -268.500000, -142.500000, -444.000000,   0.206525, -91.056664, -178.688112,   0.009305,  -0.006906,   0.713543,  -0.700475, 
15515,   0.093795,  -9.716491,  -0.175354,   0.105359,   0.363645, -12.178008,   0.001977,   1.069096,  -0.818193, -264.000000, -145.500000, -445.500000,   0.074761, -91.055352, -178.722736,   0.008273,  -0.007496,   0.713532,  -0.700498, 
15516,   0.080086,  -9.738474,  -0.187996,   0.205042,   0.316298, -13.280124,  -0.005982,   1.079419,  -0.806413, -268.500000, -141.000000, -442.500000,  -0.063269, -91.052968, -178.746064,   0.007272,  -0.008194,   0.713509,  -0.700524, 
15517,   0.134589,  -9.757634,  -0.172455,   0.101110,   0.361372, -14.181705,  -0.013243,   1.095806,  -0.803131, -273.000000, -135.000000, -442.500000,  -0.214537, -91.051016, -178.763472,   0.006223,  -0.009011,   0.713482,  -0.700541, 
15518,   0.168124,  -9.735316,  -0.170813,   0.113830,   0.306500, -15.248169,  -0.016483,   1.093726,  -0.793732, -274.500000, -135.000000, -439.500000,  -0.375959, -91.049024, -178.780048,   0.005117,  -0.009894,   0.713454,  -0.700559, 
15519,   0.097273,  -9.761162,  -0.170637,   0.187941,   0.336038, -16.014618,  -0.010703,   1.091822,  -0.804033, -271.500000, -136.500000, -442.500000,  -0.534748, -91.046456, -178.804368,   0.003980,  -0.010713,   0.713424,  -0.700579, 
15520,   0.100862,  -9.763996,  -0.172514,   0.056192,   0.390681, -16.213333,  -0.010874,   1.091008,  -0.799495, -271.500000, -136.500000, -441.000000,  -0.690960, -91.044880, -178.836512,   0.002811,  -0.011468,   0.713400,  -0.700594, 
15521,   0.160914,  -9.740012,  -0.172050,   0.133964,   0.398163, -16.456028,  -0.017900,   1.078790,  -0.786390, -274.500000, -139.500000, -436.500000,  -0.855288, -91.043112, -178.862176,   0.001631,  -0.012313,   0.713375,  -0.700608, 
15522,   0.164979,  -9.763669,  -0.170265,   0.176951,   0.361242, -16.699894,  -0.017729,   1.079605,  -0.790927, -274.500000, -139.500000, -438.000000,  -1.020201, -91.042032, -178.886032,   0.000459,  -0.013172,   0.713355,  -0.700619, 
15523,   0.139636,  -9.793711,  -0.166344,   0.125666,   0.406459, -16.577812,  -0.016670,   1.090105,  -0.798847, -274.500000, -136.500000, -441.000000,  -1.177775, -91.038040, -178.911568,  -0.000677,  -0.013977,   0.713317,  -0.700647, 
15524,   0.223166,  -9.764471,  -0.183996,   0.074628,   0.469247, -16.498934,  -0.013805,   1.084943,  -0.818476, -273.000000, -139.500000, -447.000000,  -1.340125, -91.037584, -178.947328,  -0.001907,  -0.014746,   0.713303,  -0.700652, 
15525,   0.209283,  -9.759741,  -0.155769,   0.091098,   0.379714, -16.604778,  -0.010223,   1.088653,  -0.836950, -271.500000, -139.500000, -453.000000,  -1.499458, -91.034200, -178.990608,  -0.003163,  -0.015451,   0.713265,  -0.700667, 
15526,   0.234343,  -9.800573,  -0.178626,   0.082680,   0.443380, -16.333946,  -0.023825,   1.096081,  -0.838713, -279.000000, -136.500000, -454.500000,  -1.655135, -91.032472, -179.029136,  -0.004367,  -0.016163,   0.713233,  -0.700667, 
15527,   0.237377,  -9.775214,  -0.157340,   0.072686,   0.365238, -15.961218,  -0.030134,   1.092734,  -0.824452, -282.000000, -136.500000, -450.000000,  -1.806648, -91.029288, -179.055776,  -0.005473,  -0.016923,   0.713192,  -0.700676, 
15528,   0.295755,  -9.741148,  -0.173406,   0.098351,   0.392976, -15.742869,  -0.025739,   1.081508,  -0.808105, -279.000000, -139.500000, -444.000000,  -1.956352, -91.027384, -179.084496,  -0.006580,  -0.017660,   0.713160,  -0.700676, 
15529,   0.359069,  -9.779820,  -0.170600,   0.099347,   0.509070, -15.653766,  -0.028450,   1.084678,  -0.802666, -280.500000, -138.000000, -442.500000,  -2.109947, -91.026048, -179.119984,  -0.007753,  -0.018378,   0.713132,  -0.700672, 
15530,   0.365775,  -9.759750,  -0.172897,   0.150065,   0.419771, -15.698311,  -0.034433,   1.080154,  -0.807133, -283.500000, -139.500000, -444.000000,  -2.264223, -91.025072, -179.152928,  -0.008915,  -0.019116,   0.713106,  -0.700665, 
15531,   0.352466,  -9.767416,  -0.153526,   0.045390,   0.287533, -15.510349,  -0.031535,   1.080605,  -0.807457, -282.000000, -139.500000, -444.000000,  -2.413720, -91.021360, -179.184672,  -0.010039,  -0.019833,   0.713065,  -0.700675, 
15532,   0.416521,  -9.791880,  -0.166639,   0.105588,   0.305456, -15.457149,  -0.019568,   1.089653,  -0.798523, -276.000000, -136.500000, -441.000000,  -2.562721, -91.019080, -179.231616,  -0.011253,  -0.020452,   0.713035,  -0.700675, 
15533,   0.468338,  -9.744799,  -0.174483,   0.106743,   0.430225, -15.411404,  -0.025005,   1.093186,  -0.797298, -279.000000, -135.000000, -441.000000,  -2.715598, -91.017840, -179.288800,  -0.012554,  -0.021031,   0.713014,  -0.700665, 
15534,   0.482769,  -9.753094,  -0.195037,  -0.004952,   0.384843, -15.639718,  -0.036256,   1.093009,  -0.805076, -285.000000, -135.000000, -444.000000,  -2.869036, -91.019160, -179.336832,  -0.013803,  -0.021669,   0.713004,  -0.700636, 
15535,   0.507819,  -9.749118,  -0.162979,   0.081963,   0.454757, -15.846389,  -0.044779,   1.092469,  -0.808642, -289.500000, -135.000000, -445.500000,  -3.025719, -91.016320, -179.374016,  -0.015005,  -0.022396,   0.712958,  -0.700625, 
15536,   0.543258,  -9.766916,  -0.202268,   0.064056,   0.365390, -15.935202,  -0.043127,   1.078799,  -0.806161, -288.000000, -139.500000, -444.000000,  -3.184990, -91.017360, -179.409808,  -0.016215,  -0.023147,   0.712937,  -0.700589, 
15537,   0.543835,  -9.745702,  -0.172151,   0.080901,   0.375532, -15.682451,  -0.038828,   1.091380,  -0.823480, -286.500000, -136.500000, -450.000000,  -3.338302, -91.015640, -179.451744,  -0.017425,  -0.023823,   0.712901,  -0.700570, 
15538,   0.587010,  -9.753531,  -0.187178,   0.167240,   0.428894, -15.645742,  -0.040463,   1.107856,  -0.816309, -288.000000, -130.500000, -448.500000,  -3.491099, -91.014432, -179.500000,  -0.018670,  -0.024457,   0.712871,  -0.700546, 
15539,   0.600737,  -9.741817,  -0.160511,   0.047122,   0.428854, -15.707986,  -0.047489,   1.095638,  -0.803203, -291.000000, -133.500000, -444.000000,  -3.643471, -91.013128, -179.545760,  -0.019898,  -0.025104,   0.712840,  -0.700522, 
15540,   0.683031,  -9.691949,  -0.145109,   0.184655,   0.409778, -15.898273,  -0.044111,   1.092920,  -0.836445, -289.500000, -136.500000, -454.500000,  -3.804012, -91.009192, -179.594736,  -0.021196,  -0.025781,   0.712794,  -0.700512, 
15541,   0.727182,  -9.752355,  -0.171379,   0.091144,   0.397905, -16.526129,  -0.036801,   1.084952,  -0.810769, -285.000000, -138.000000, -445.500000,  -3.973369, -91.006408, -179.656048,  -0.022624,  -0.026435,   0.712756,  -0.700491, 
15542,   0.728973,  -9.757082,  -0.175500,   0.143736,   0.440322, -16.907724,  -0.042035,   1.094912,  -0.794776, -288.000000, -133.500000, -441.000000,  -4.142791, -91.006784, -179.719856,  -0.024068,  -0.027074,   0.712739,  -0.700448, 
15543,   0.735405,  -9.773095,  -0.157758,   0.195023,   0.404267, -16.977422,  -0.049345,   1.102880,  -0.820452, -292.500000, -132.000000, -450.000000,  -4.311642, -91.004504, -179.778272,  -0.025475,  -0.027743,   0.712699,  -0.700414, 
15544,   0.721908,  -9.712189,  -0.151325,   0.058493,   0.493582, -16.968638,  -0.047164,   1.094461,  -0.821931, -291.000000, -135.000000, -450.000000,  -4.475266, -91.000984, -179.833872,  -0.026832,  -0.028398,   0.712647,  -0.700384, 
15545,   0.753949,  -9.798540,  -0.180063,   0.091930,   0.459647, -16.629457,  -0.038999,   1.090565,  -0.818943, -286.500000, -136.500000, -448.500000,  -4.637315, -90.999976, -179.900128,  -0.028244,  -0.028976,   0.712615,  -0.700335, 
15546,   0.834772,  -9.688975,  -0.168763,   0.074714,   0.468981, -16.551155,  -0.047180,   1.091654,  -0.831583, -291.000000, -136.500000, -453.000000,  -4.801902, -90.998304, -179.971312,  -0.029702,  -0.029540,   0.712581,  -0.700287, 
15547,   0.826701,  -9.739180,  -0.164136,   0.152373,   0.476818, -16.724220,  -0.053522,   1.082695,  -0.836628, -294.000000, -139.500000, -454.500000,  -4.966604, -90.994712, 179.966096,   0.031108,   0.030158,  -0.712531,   0.700249, 
15548,   0.890277,  -9.729982,  -0.164836,   0.118343,   0.494244, -16.811314,  -0.041384,   1.092557,  -0.832231, -288.000000, -136.500000, -453.000000,  -5.134737, -90.992920, 179.894720,   0.032589,   0.030742,  -0.712492,   0.700193, 
15549,   0.937139,  -9.703588,  -0.160338,   0.179202,   0.510130, -17.158478,  -0.052055,   1.106050,  -0.815012, -294.000000, -130.500000, -448.500000,  -5.308894, -90.989944, 179.815152,   0.034157,   0.031313,  -0.712448,   0.700139, 
15550,   1.019734,  -9.693466,  -0.169486,   0.214517,   0.414271, -17.722582,  -0.056371,   1.090663,  -0.807346, -295.500000, -135.000000, -445.500000,  -5.494643, -90.986736, 179.740912,   0.035765,   0.031987,  -0.712399,   0.700083, 
15551,   1.015083,  -9.719808,  -0.187506,   0.110969,   0.353025, -18.345624,  -0.061841,   1.088582,  -0.825426, -298.500000, -136.500000, -451.500000,  -5.681977, -90.984984, 179.674944,   0.037332,   0.032722,  -0.712355,   0.700015, 
15552,   1.044304,  -9.670477,  -0.157221,   0.079840,   0.463240, -19.038308,  -0.061141,   1.094647,  -0.833923, -298.500000, -135.000000, -454.500000,  -5.876269, -90.982648, 179.607872,   0.038947,   0.033493,  -0.712295,   0.699937, 
15553,   1.065337,  -9.701770,  -0.146397,   0.207564,   0.337051, -19.693798,  -0.064927,   1.084510,  -0.830217, -300.000000, -138.000000, -453.000000,  -6.077007, -90.978752, 179.539264,   0.040612,   0.034294,  -0.712226,   0.699864, 
15554,   1.076081,  -9.723621,  -0.177480,   0.165965,   0.488974, -20.158612,  -0.069071,   1.069937,  -0.827088, -301.500000, -142.500000, -451.500000,  -6.276336, -90.976672, 179.477408,   0.042228,   0.035128,  -0.712168,   0.699781, 
15555,   1.084597,  -9.700634,  -0.163958,   0.158056,   0.440954, -20.275594,  -0.059660,   1.080163,  -0.826905, -297.000000, -139.500000, -451.500000,  -6.475587, -90.974344, 179.408656,   0.043884,   0.035920,  -0.712112,   0.699696, 
15556,   1.106944,  -9.709085,  -0.152584,   0.196428,   0.464670, -20.259280,  -0.063680,   1.098631,  -0.833022, -300.000000, -133.500000, -454.500000,  -6.672735, -90.970984, 179.330000,   0.045588,   0.036637,  -0.712055,   0.699612, 
15557,   1.135934,  -9.735126,  -0.158288,   0.141557,   0.530575, -20.152344,  -0.069835,   1.093292,  -0.832951, -303.000000, -135.000000, -454.500000,  -6.868126, -90.968888, 179.254880,   0.047259,   0.037365,  -0.712007,   0.699521, 
15558,   1.176851,  -9.674197,  -0.139449,   0.051084,   0.465980, -20.067454,  -0.070535,   1.087228,  -0.824454, -303.000000, -136.500000, -451.500000,  -7.065065, -90.966672, 179.181216,   0.048931,   0.038111,  -0.711956,   0.699427, 
15559,   1.236997,  -9.660488,  -0.157483,   0.184330,   0.503480, -20.213272,  -0.078683,   1.093930,  -0.817789, -307.500000, -133.500000, -450.000000,  -7.266679, -90.963320, 179.107824,   0.050629,   0.038888,  -0.711885,   0.699324, 
15560,   1.264111,  -9.745351,  -0.199700,   0.196019,   0.384451, -20.485050,  -0.071641,   1.108954,  -0.821242, -304.500000, -129.000000, -451.500000,  -7.468814, -90.964016, 179.030256,   0.052357,   0.039641,  -0.711842,   0.699192, 
15561,   1.288592,  -9.653010,  -0.161225,   0.055982,   0.493190, -20.545580,  -0.068384,   1.113841,  -0.820989, -303.000000, -127.500000, -451.500000,  -7.669787, -90.963232, 178.940656,   0.054150,   0.040312,  -0.711797,   0.699063, 
15562,   1.349022,  -9.662271,  -0.149699,   0.174979,   0.500993, -20.900952,  -0.083575,   1.105519,  -0.810871, -310.500000, -129.000000, -448.500000,  -7.878171, -90.958584, 178.852720,   0.055978,   0.041041,  -0.711726,   0.698953, 
15563,   1.376456,  -9.725988,  -0.194259,   0.142379,   0.463872, -21.023812,  -0.095321,   1.105705,  -0.795385, -316.500000, -127.500000, -444.000000,  -8.085387, -90.958728, 178.783664,   0.057685,   0.041878,  -0.711680,   0.698821, 
15564,   1.363448,  -9.654449,  -0.150110,   0.084264,   0.571817, -21.008996,  -0.091347,   1.119463,  -0.793977, -315.000000, -123.000000, -444.000000,  -8.289232, -90.956560, 178.712608,   0.059382,   0.042683,  -0.711623,   0.698702, 
15565,   1.373024,  -9.668710,  -0.164147,   0.150494,   0.474477, -20.684120,  -0.087920,   1.125164,  -0.798261, -313.500000, -121.500000, -445.500000,  -8.486975, -90.954824, 178.630928,   0.061105,   0.043385,  -0.711573,   0.698573, 
15566,   1.410072,  -9.726027,  -0.176566,   0.165228,   0.434210, -20.043554,  -0.091381,   1.113850,  -0.813282, -315.000000, -126.000000, -450.000000,  -8.678870, -90.953960, 178.554064,   0.062762,   0.044079,  -0.711516,   0.698429, 
15567,   1.429290,  -9.672504,  -0.153107,   0.053647,   0.445393, -19.449884,  -0.092969,   1.098100,  -0.801402, -315.000000, -130.500000, -445.500000,  -8.862380, -90.954112, 178.479936,   0.064351,   0.044739,  -0.711467,   0.698280, 
15568,   1.504109,  -9.632468,  -0.130162,   0.148492,   0.503964, -18.773806,  -0.100929,   1.108423,  -0.789622, -319.500000, -126.000000, -442.500000,  -9.045607, -90.948952, 178.407824,   0.065923,   0.045413,  -0.711386,   0.698164, 
15569,   1.541950,  -9.701265,  -0.185336,   0.094754,   0.423436, -18.501202,  -0.100246,   1.111681,  -0.807772, -319.500000, -126.000000, -448.500000,  -9.225804, -90.947352, 178.331200,   0.067505,   0.046039,  -0.711331,   0.698023, 
15570,   1.521280,  -9.654500,  -0.184606,   0.001271,   0.429582, -17.918056,  -0.104578,   1.093487,  -0.809758, -321.000000, -132.000000, -448.500000,  -9.397484, -90.949448, 178.264256,   0.068977,   0.046670,  -0.711300,   0.697870, 
15571,   1.515332,  -9.619639,  -0.168955,  -0.001254,   0.510934, -17.082126,  -0.103690,   1.103173,  -0.813141, -321.000000, -129.000000, -450.000000,  -9.556771, -90.950016, 178.192096,   0.070403,   0.047194,  -0.711268,   0.697728, 
15572,   1.635672,  -9.673367,  -0.174848,   0.075229,   0.453021, -16.385107,  -0.103502,   1.106794,  -0.808025, -321.000000, -127.500000, -448.500000,  -9.716235, -90.950168, 178.112464,   0.071875,   0.047674,  -0.711237,   0.697583, 
15573,   1.664352,  -9.656297,  -0.165508,   0.031230,   0.534939, -15.845524,  -0.104236,   1.095116,  -0.818833, -321.000000, -132.000000, -451.500000,  -9.874487, -90.951288, 178.032304,   0.073343,   0.048142,  -0.711212,   0.697428, 
15574,   1.648449,  -9.593755,  -0.079223,   0.065687,   0.418185, -15.465256,  -0.103381,   1.099189,  -0.841521, -321.000000, -132.000000, -459.000000, -10.023790, -90.942224, 177.948304,   0.074774,   0.048538,  -0.711123,   0.697330, 
15575,   1.647577,  -9.657996,  -0.168585,   0.141218,   0.411425, -15.594121,  -0.109160,   1.101092,  -0.831220, -324.000000, -130.500000, -456.000000, -10.165038, -90.937904, 177.873712,   0.076099,   0.048940,  -0.711063,   0.697212, 
15576,   1.722423,  -9.594905,  -0.185689,   0.035926,   0.366988, -16.216879,  -0.109127,   1.106705,  -0.811915, -324.000000, -127.500000, -450.000000, -10.315998, -90.939040, 177.792976,   0.077524,   0.049359,  -0.711036,   0.697048, 
15577,   1.880204,  -9.503565,  -0.146090,   0.159911,   0.388368, -16.621271,  -0.112930,   1.093762,  -0.817861, -325.500000, -132.000000, -451.500000, -10.492833, -90.936208, 177.709424,   0.079125,   0.049922,  -0.710975,   0.696888, 
15578,   2.015251,  -9.637536,  -0.214224,   0.273799,   0.481989, -17.401618,  -0.108038,   1.082173,  -0.824779, -322.500000, -136.500000, -453.000000, -10.688502, -90.938936, 177.614640,   0.080912,   0.050526,  -0.710947,   0.696672, 
15579,   1.954780,  -9.586559,  -0.167427,  -0.059383,   0.495795, -18.336258,  -0.104969,   1.083439,  -0.829641, -321.000000, -136.500000, -454.500000, -10.884505, -90.940128, 177.514176,   0.082735,   0.051099,  -0.710914,   0.696458, 
15580,   1.938688,  -9.497420,  -0.082503,   0.137939,   0.367571, -18.971678,  -0.112604,   1.092584,  -0.836589, -325.500000, -133.500000, -457.500000, -11.083585, -90.931288, 177.420080,   0.084533,   0.051737,  -0.710818,   0.696307, 
15581,   1.937316,  -9.596548,  -0.159892,   0.250880,   0.381613, -19.657714,  -0.117838,   1.102544,  -0.820596, -328.500000, -129.000000, -453.000000, -11.280513, -90.927272, 177.331344,   0.086288,   0.052392,  -0.710749,   0.696127, 
15582,   1.988452,  -9.587826,  -0.194325,   0.183943,   0.422173, -20.458406,  -0.130301,   1.093859,  -0.806265, -334.500000, -130.500000, -448.500000, -11.484444, -90.928136, 177.259488,   0.087983,   0.053190,  -0.710687,   0.695910, 
15583,   2.061625,  -9.497883,  -0.101652,   0.100529,   0.506457, -21.415150,  -0.131735,   1.076117,  -0.808575, -334.500000, -136.500000, -448.500000, -11.705694, -90.922568, 177.185472,   0.089795,   0.054086,  -0.710579,   0.695715, 
15584,   2.114320,  -9.575947,  -0.183936,   0.238874,   0.448209, -22.311062,  -0.122324,   1.086343,  -0.808391, -330.000000, -133.500000, -448.500000, -11.937628, -90.921256, 177.090480,   0.091801,   0.054913,  -0.710498,   0.695461, 
15585,   2.209985,  -9.475345,  -0.151285,  -0.007780,   0.523962, -23.269758,  -0.123771,   1.106440,  -0.796105, -331.500000, -126.000000, -445.500000, -12.185897, -90.923664, 176.983136,   0.093984,   0.055760,  -0.710440,   0.695158, 
15586,   2.225449,  -9.472509,  -0.121070,   0.199618,   0.455290, -24.434886,  -0.129038,   1.110787,  -0.799417, -334.500000, -124.500000, -447.000000, -12.446207, -90.916576, 176.874608,   0.096244,   0.056681,  -0.710321,   0.694901, 
15587,   2.256848,  -9.571851,  -0.155133,   0.262421,   0.501845, -25.747514,  -0.136081,   1.095763,  -0.795964, -337.500000, -129.000000, -445.500000, -12.711950, -90.913136, 176.780704,   0.098449,   0.057724,  -0.710214,   0.694622, 
15588,   2.308685,  -9.511790,  -0.152345,   0.127375,   0.531581, -26.958184,  -0.147160,   1.096400,  -0.808281, -343.500000, -129.000000, -450.000000, -12.991825, -90.912128, 176.696944,   0.100679,   0.058912,  -0.710096,   0.694306, 
15589,   2.333595,  -9.415637,  -0.116094,   0.225108,   0.530432, -28.889178,  -0.139775,   1.113053,  -0.820809, -340.500000, -124.500000, -454.500000, -13.288355, -90.907944, 176.590544,   0.103146,   0.060065,  -0.709963,   0.693971, 
15590,   2.410083,  -9.508613,  -0.175194,   0.365838,   0.648160, -30.164872,  -0.141176,   1.100924,  -0.803813, -340.500000, -127.500000, -448.500000, -13.598362, -90.905080, 176.484512,   0.105693,   0.061301,  -0.709834,   0.693613, 
15591,   2.433257,  -9.531787,  -0.157332,   0.289873,   0.625935, -31.071210,  -0.147314,   1.098392,  -0.794091, -343.500000, -127.500000, -445.500000, -13.917689, -90.905136, 176.381264,   0.108283,   0.062609,  -0.709720,   0.693228, 
15592,   2.458187,  -9.406732,  -0.091552,   0.367570,   0.523650, -31.907652,  -0.147160,   1.096400,  -0.808281, -343.500000, -129.000000, -450.000000, -14.243762, -90.896464, 176.271760,   0.110944,   0.063928,  -0.709543,   0.692868, 
15593,   2.505443,  -9.486561,  -0.165615,   0.368436,   0.548479, -32.272724,  -0.148064,   1.083908,  -0.814551, -343.500000, -133.500000, -451.500000, -14.571804, -90.891808, 176.165008,   0.113600,   0.065271,  -0.709380,   0.692469, 
15594,   2.590782,  -9.457914,  -0.186206,   0.233254,   0.624469, -33.134460,  -0.147706,   1.088344,  -0.813973, -343.500000, -132.000000, -451.500000, -14.904869, -90.891392, 176.049632,   0.116341,   0.066587,  -0.709249,   0.692027, 
15595,   2.604613,  -9.402523,  -0.131770,   0.218097,   0.654954, -34.143616,  -0.158564,   1.098215,  -0.801870, -349.500000, -127.500000, -448.500000, -15.249491, -90.886952, 175.935648,   0.119141,   0.067987,  -0.709090,   0.691595, 
15596,   2.602026,  -9.456841,  -0.152482,   0.287539,   0.652497, -34.595452,  -0.164173,   1.100933,  -0.796107, -352.500000, -126.000000, -447.000000, -15.587740, -90.881600, 175.826208,   0.121872,   0.069377,  -0.708922,   0.691166, 
15597,   2.640512,  -9.445147,  -0.168711,   0.244507,   0.671228, -34.430240,  -0.167087,   1.097675,  -0.805435, -354.000000, -127.500000, -450.000000, -15.923649, -90.880552, 175.718576,   0.124576,   0.070758,  -0.708762,   0.690691, 
15598,   2.730525,  -9.344044,  -0.076496,   0.243514,   0.573457, -34.414584,  -0.169439,   1.105280,  -0.799419, -355.500000, -124.500000, -448.500000, -16.262562, -90.872504, 175.599616,   0.127361,   0.072095,  -0.708565,   0.690236, 
15599,   2.848746,  -9.397521,  -0.175979,   0.364702,   0.616030, -34.734496,  -0.177074,   1.114426,  -0.806367, -360.000000, -121.500000, -451.500000, -16.611803, -90.869800, 175.480160,   0.130214,   0.073487,  -0.708399,   0.689731, 
15600,   2.976958,  -9.370343,  -0.135464,   0.339990,   0.622016, -35.317764,  -0.179818,   1.111982,  -0.820233, -361.500000, -123.000000, -456.000000, -16.975838, -90.868360, 175.355632,   0.133187,   0.074936,  -0.708232,   0.689184, 
15601,   2.966401,  -9.302394,  -0.107759,   0.402317,   0.651708, -36.447928,  -0.177466,   1.104377,  -0.826249, -360.000000, -126.000000, -457.500000, -17.346614, -90.860608, 175.222848,   0.136242,   0.076381,  -0.708012,   0.688634, 
15602,   2.995795,  -9.326086,  -0.142376,   0.403413,   0.675828, -36.952260,  -0.180909,   1.095869,  -0.831617, -361.500000, -129.000000, -459.000000, -17.716540, -90.855976, 175.096192,   0.139255,   0.077856,  -0.707812,   0.688068, 
15603,   3.053055,  -9.362990,  -0.123679,   0.353552,   0.734984, -37.587072,  -0.193014,   1.091620,  -0.816709, -367.500000, -129.000000, -454.500000, -18.088888, -90.850496, 174.979600,   0.142222,   0.079409,  -0.707603,   0.687512, 
15604,   3.089506,  -9.279789,  -0.138105,   0.335527,   0.627648, -37.711016,  -0.192827,   1.095241,  -0.811594, -367.500000, -127.500000, -453.000000, -18.460456, -90.846808, 174.855248,   0.145227,   0.080907,  -0.707403,   0.686918, 
15605,   3.136480,  -9.251579,  -0.157211,   0.370779,   0.707282, -37.778840,  -0.191955,   1.102120,  -0.824629, -367.500000, -126.000000, -457.500000, -18.833678, -90.842800, 174.719872,   0.148304,   0.082346,  -0.707197,   0.686291, 
15606,   3.265226,  -9.271602,  -0.157445,   0.251128,   0.751635, -37.857692,  -0.203735,   1.096693,  -0.828448, -373.500000, -127.500000, -459.000000, -19.213760, -90.841192, 174.594352,   0.151365,   0.083886,  -0.707000,   0.685647, 
15607,   3.325611,  -9.180250,  -0.123096,   0.336596,   0.720204, -38.363048,  -0.213146,   1.086467,  -0.828631, -378.000000, -130.500000, -459.000000, -19.601540, -90.836792, 174.471264,   0.154454,   0.085492,  -0.706782,   0.685009, 
15608,   3.369694,  -9.217697,  -0.137154,   0.373153,   0.727460, -39.057792,  -0.213676,   1.081217,  -0.824671, -378.000000, -132.000000, -457.500000, -19.991248, -90.831672, 174.349328,   0.157542,   0.087116,  -0.706539,   0.684345, 
15609,   3.508186,  -9.214069,  -0.130152,   0.339476,   0.760210, -39.824404,  -0.210232,   1.089725,  -0.819303, -376.500000, -129.000000, -456.000000, -20.396114, -90.827144, 174.210320,   0.160818,   0.088724,  -0.706291,   0.683613, 
15610,   3.496562,  -9.130177,  -0.129067,   0.272505,   0.711132, -40.564796,  -0.216386,   1.084387,  -0.819232, -379.500000, -130.500000, -456.000000, -20.801524, -90.823856, 174.067104,   0.164123,   0.090310,  -0.706059,   0.682861, 
15611,   3.569262,  -9.110392,  -0.087134,   0.356171,   0.674286, -41.164072,  -0.230860,   1.084936,  -0.807960, -387.000000, -129.000000, -453.000000, -21.213878, -90.817224, 173.928768,   0.167434,   0.091973,  -0.705795,   0.682112, 
15612,   3.669722,  -9.142685,  -0.135457,   0.429957,   0.784385, -41.832388,  -0.235597,   1.094533,  -0.815232, -390.000000, -126.000000, -456.000000, -21.636252, -90.811960, 173.791200,   0.170795,   0.093697,  -0.705515,   0.681314, 
15613,   3.653102,  -9.107499,  -0.130573,   0.373524,   0.708555, -42.192152,  -0.234538,   1.105033,  -0.823151, -390.000000, -123.000000, -459.000000, -22.053156, -90.808528, 173.648496,   0.174154,   0.095355,  -0.705260,   0.680498, 
15614,   3.714513,  -9.037134,  -0.112035,   0.438071,   0.703325, -42.025208,  -0.231811,   1.104670,  -0.818938, -388.500000, -123.000000, -457.500000, -22.468530, -90.801664, 173.491360,   0.177584,   0.096921,  -0.705005,   0.679677, 
15615,   3.811478,  -9.088679,  -0.145118,   0.442357,   0.765015, -41.942828,  -0.241238,   1.091638,  -0.828774, -393.000000, -127.500000, -460.500000, -22.881742, -90.797336, 173.335920,   0.180984,   0.098478,  -0.704743,   0.678812, 
15616,   3.779924,  -9.013776,  -0.104449,   0.248539,   0.705654, -41.653028,  -0.247409,   1.083493,  -0.838356, -396.000000, -130.500000, -463.500000, -23.287488, -90.793576, 173.193264,   0.184263,   0.100068,  -0.704485,   0.677967, 
15617,   3.825999,  -9.028405,  -0.105624,   0.425410,   0.713199, -41.255448,  -0.249965,   1.084670,  -0.847107, -397.500000, -130.500000, -466.500000, -23.684960, -90.787328, 173.052928,   0.187473,   0.101628,  -0.704223,   0.677148, 
15618,   3.890802,  -9.036037,  -0.132556,   0.435370,   0.702490, -40.441316,  -0.259310,   1.085671,  -0.808680, -402.000000, -127.500000, -454.500000, -24.071490, -90.785488, 172.913472,   0.190611,   0.103117,  -0.703985,   0.676298, 
15619,   4.000618,  -8.957650,  -0.118963,   0.277614,   0.713924, -39.624780,  -0.269218,   1.075808,  -0.785598, -406.500000, -129.000000, -447.000000, -24.458536, -90.783664, 172.772368,   0.193753,   0.104598,  -0.703731,   0.675418, 
15620,   4.040578,  -8.884871,  -0.079992,   0.304365,   0.691232, -39.215844,  -0.275389,   1.067663,  -0.795180, -409.500000, -132.000000, -450.000000, -24.843408, -90.773888, 172.632928,   0.196864,   0.106090,  -0.703436,   0.674586, 
15621,   4.130428,  -8.919761,  -0.156789,   0.274657,   0.592675, -38.590336,  -0.263642,   1.067477,  -0.810666, -403.500000, -133.500000, -454.500000, -25.222730, -90.773440, 172.492080,   0.199957,   0.107525,  -0.703209,   0.673700, 
15622,   4.239866,  -8.846624,  -0.108579,   0.286144,   0.703666, -38.528288,  -0.271807,   1.071373,  -0.813654, -408.000000, -132.000000, -456.000000, -25.604484, -90.769456, 172.337936,   0.203131,   0.108897,  -0.702955,   0.672780, 
15623,   4.334986,  -8.754215,  -0.082758,   0.322211,   0.717522, -38.897036,  -0.283570,   1.068752,  -0.807820, -414.000000, -132.000000, -454.500000, -25.995212, -90.762120, 172.183888,   0.206351,   0.110330,  -0.702672,   0.671852, 
15624,   4.423618,  -8.785889,  -0.120742,   0.382522,   0.679195, -39.798296,  -0.283774,   1.062325,  -0.822587, -414.000000, -135.000000, -459.000000, -26.396446, -90.756048, 172.033792,   0.209609,   0.111851,  -0.702388,   0.670899, 
15625,   4.429047,  -8.753418,  -0.151302,   0.315720,   0.591797, -40.299556,  -0.288527,   1.069115,  -0.839512, -417.000000, -133.500000, -465.000000, -26.799296, -90.755288, 171.887024,   0.212859,   0.113391,  -0.702131,   0.669904, 
15626,   4.451490,  -8.699196,  -0.088016,   0.366438,   0.666705, -40.512332,  -0.291938,   1.066220,  -0.825576, -418.500000, -133.500000, -460.500000, -27.201506, -90.749376, 171.735888,   0.216116,   0.114909,  -0.701831,   0.668905, 
15627,   4.506994,  -8.717497,  -0.148074,   0.323912,   0.655239, -40.259652,  -0.289366,   1.067849,  -0.807172, -417.000000, -132.000000, -454.500000, -27.597834, -90.747272, 171.578624,   0.219375,   0.116347,  -0.701572,   0.667876, 
15628,   4.612413,  -8.676129,  -0.131654,   0.315262,   0.766584, -40.136896,  -0.291376,   1.077083,  -0.810231, -418.500000, -129.000000, -456.000000, -27.997130, -90.746248, 171.406624,   0.222734,   0.117710,  -0.701328,   0.666788, 
15629,   4.534739,  -8.653646,  -0.082775,   0.330748,   0.698421, -39.539364,  -0.302251,   1.084148,  -0.807780, -424.500000, -126.000000, -456.000000, -28.379674, -90.737536, 171.231904,   0.225993,   0.118969,  -0.701045,   0.665748, 
15630,   4.571114,  -8.637023,  -0.097705,   0.336637,   0.651723, -38.224052,  -0.299711,   1.080164,  -0.808681, -423.000000, -127.500000, -456.000000, -28.744042, -90.731104, 171.058912,   0.229132,   0.120124,  -0.700791,   0.664718, 
15631,   4.573770,  -8.641689,  -0.101361,   0.333399,   0.689327, -36.661728,  -0.314747,   1.069850,  -0.812754, -430.500000, -130.500000, -457.500000, -29.089708, -90.726712, 170.897152,   0.232095,   0.121231,  -0.700564,   0.663729, 
15632,   4.661403,  -8.562926,  -0.100523,   0.280136,   0.685532, -35.099720,  -0.323441,   1.068496,  -0.811782, -435.000000, -130.500000, -457.500000, -29.422810, -90.724416, 170.748208,   0.234911,   0.122339,  -0.700354,   0.662773, 
15633,   4.724273,  -8.571459,  -0.097699,   0.285345,   0.585933, -33.691560,  -0.317303,   1.071028,  -0.821505, -432.000000, -130.500000, -460.500000, -29.742656, -90.720808, 170.594704,   0.237667,   0.123339,  -0.700145,   0.661822, 
15634,   4.817543,  -8.527453,  -0.132384,   0.162944,   0.592936, -32.369926,  -0.324517,   1.055189,  -0.813514, -435.000000, -135.000000, -457.500000, -30.053524, -90.720704, 170.441840,   0.240366,   0.124281,  -0.699963,   0.660857, 
15635,   4.868712,  -8.437938,  -0.078827,   0.161478,   0.588292, -31.534550,  -0.333724,   1.051391,  -0.798930, -439.500000, -135.000000, -453.000000, -30.362270, -90.717768, 170.292224,   0.243029,   0.125237,  -0.699768,   0.659915, 
15636,   4.952843,  -8.443487,  -0.137810,   0.280283,   0.555714, -30.889794,  -0.336092,   1.056190,  -0.802566, -441.000000, -133.500000, -454.500000, -30.665712, -90.715400, 170.143904,   0.245652,   0.126169,  -0.699585,   0.658979, 
15637,   5.092979,  -8.425228,  -0.093671,   0.159648,   0.557269, -30.638712,  -0.337013,   1.040891,  -0.818488, -441.000000, -139.500000, -459.000000, -30.972868, -90.713416, 169.995568,   0.248291,   0.127121,  -0.699392,   0.658016, 
15638,   5.163537,  -8.331574,  -0.083639,   0.205095,   0.714426, -31.201114,  -0.339928,   1.037633,  -0.827816, -442.500000, -141.000000, -462.000000, -31.293292, -90.708088, 169.847536,   0.250993,   0.128159,  -0.699148,   0.657021, 
15639,   5.114275,  -8.367983,  -0.099375,   0.307006,   0.552689, -31.472654,  -0.329629,   1.057544,  -0.831016, -438.000000, -135.000000, -463.500000, -31.606900, -90.703400, 169.690768,   0.253704,   0.129103,  -0.698931,   0.656012, 
15640,   5.203911,  -8.323387,  -0.124644,   0.169637,   0.607925, -31.168584,  -0.333431,   1.044600,  -0.836962, -439.500000, -139.500000, -465.000000, -31.916506, -90.703312, 169.527136,   0.256434,   0.129972,  -0.698758,   0.654964, 
15641,   5.315153,  -8.227568,  -0.096602,   0.248038,   0.677637, -31.418868,  -0.342500,   1.036004,  -0.846220, -444.000000, -142.500000, -468.000000, -32.243592, -90.698248, 169.366624,   0.259240,   0.130977,  -0.698538,   0.653910, 
15642,   5.487129,  -8.237707,  -0.103589,   0.351749,   0.537850, -32.621216,  -0.342313,   1.039625,  -0.841105, -444.000000, -141.000000, -466.500000, -32.586574, -90.692736, 169.205760,   0.262131,   0.132075,  -0.698285,   0.652800, 
15643,   5.643365,  -8.146766,  -0.091740,   0.227265,   0.607309, -34.762276,  -0.350803,   1.044698,  -0.825366, -448.500000, -138.000000, -462.000000, -32.962712, -90.686888, 169.030144,   0.265291,   0.133284,  -0.698007,   0.651569, 
15644,   5.734754,  -8.095712,  -0.099286,   0.413386,   0.634864, -38.005932,  -0.353359,   1.045876,  -0.834117, -450.000000, -138.000000, -465.000000, -33.377736, -90.680584, 168.846640,   0.268717,   0.134682,  -0.697697,   0.650225, 
15645,   5.748605,  -8.076872,  -0.092088,   0.394121,   0.734052, -41.250584,  -0.361135,   1.019174,  -0.841471, -453.000000, -147.000000, -466.500000, -33.818620, -90.671936, 168.675824,   0.272208,   0.136318,  -0.697325,   0.648849, 
15646,   5.749711,  -8.088709,  -0.085006,   0.356275,   0.755117, -44.122596,  -0.364750,   1.009852,  -0.842302, -454.500000, -150.000000, -466.500000, -34.279708, -90.665072, 168.524656,   0.275690,   0.138187,  -0.696887,   0.647420, 
15647,   5.820802,  -8.019259,  -0.088560,   0.352238,   0.823598, -46.401596,  -0.359717,   1.034110,  -0.848814, -453.000000, -142.500000, -469.500000, -34.761912, -90.659224, 168.360144,   0.279366,   0.140100,  -0.696454,   0.645894, 
15648,   5.837260,  -7.958475,  -0.080133,   0.407898,   0.911552, -48.322772,  -0.363332,   1.024787,  -0.849645, -454.500000, -145.500000, -469.500000, -35.259756, -90.649632, 168.180176,   0.283206,   0.142024,  -0.695999,   0.644301, 
15649,   5.924797,  -7.972375,  -0.105458,   0.470886,   0.856704, -50.333432,  -0.367648,   1.009400,  -0.841978, -456.000000, -150.000000, -466.500000, -35.775424, -90.644848, 168.008992,   0.287088,   0.144092,  -0.695518,   0.642619, 
15650,   5.851175,  -7.925456,  -0.071155,   0.550671,   0.867148, -51.742244,  -0.373957,   1.006054,  -0.827718, -459.000000, -150.000000, -462.000000, -36.295080, -90.634896, 167.841408,   0.290962,   0.146222,  -0.695008,   0.640959, 
15651,   5.803994,  -7.901610,  -0.080343,   0.482524,   0.893105, -51.916592,  -0.384473,   1.017554,  -0.824689, -465.000000, -145.500000, -462.000000, -36.804396, -90.629272, 167.677760,   0.294749,   0.148301,  -0.694521,   0.639283, 
15652,   5.740804,  -7.981658,  -0.114507,   0.583017,   0.836579, -50.741592,  -0.395878,   1.019369,  -0.818278, -471.000000, -144.000000, -460.500000, -37.280672, -90.625728, 167.527392,   0.298266,   0.150255,  -0.694061,   0.637688, 
15653,   5.881663,  -7.834553,  -0.083259,   0.247402,   0.995388, -49.402216,  -0.400022,   1.004797,  -0.815149, -472.500000, -148.500000, -459.000000, -37.753068, -90.623400, 167.380960,   0.301739,   0.152209,  -0.693615,   0.636099, 
15654,   6.090667,  -7.755607,  -0.092860,   0.511021,   0.865245, -48.635764,  -0.406193,   0.996652,  -0.824731, -475.500000, -151.500000, -462.000000, -38.233220, -90.617160, 167.232048,   0.305247,   0.154200,  -0.693121,   0.634474, 
15655,   6.298532,  -7.643610,  -0.076481,   0.263373,   0.843228, -49.578796,  -0.402578,   1.005974,  -0.823900, -474.000000, -148.500000, -462.000000, -38.736880, -90.610808, 167.052320,   0.309046,   0.156143,  -0.692623,   0.632679, 
15656,   6.404353,  -7.575494,  -0.075055,   0.515630,   0.851027, -51.429612,  -0.402203,   1.013216,  -0.813670, -474.000000, -145.500000, -459.000000, -39.265268, -90.601144, 166.845728,   0.313120,   0.158084,  -0.692119,   0.630756, 
15657,   6.621289,  -7.454655,  -0.067454,   0.314513,   0.946152, -53.806036,  -0.416710,   1.008152,  -0.821702, -481.500000, -147.000000, -462.000000, -39.825780, -90.593528, 166.650256,   0.317295,   0.160275,  -0.691545,   0.628722, 
15658,   6.954422,  -7.344928,  -0.057224,   0.589346,   1.038085, -58.344320,  -0.425233,   1.007612,  -0.825268, -486.000000, -147.000000, -463.500000, -40.458260, -90.579304, 166.434480,   0.321962,   0.162793,  -0.690865,   0.626454, 
15659,   6.998176,  -7.358074,  -0.074022,   0.599349,   1.062230, -64.087724,  -0.431558,   1.001459,  -0.820660, -489.000000, -148.500000, -462.000000, -41.138912, -90.566496, 166.220704,   0.326866,   0.165606,  -0.690110,   0.624012, 
15660,   6.816583,  -7.232674,  -0.061716,   0.779286,   1.109893, -68.627824,  -0.437917,   0.989693,  -0.835357, -492.000000, -153.000000, -466.500000, -41.850940, -90.549880, 166.021792,   0.331836,   0.168706,  -0.689257,   0.621509, 
15661,   6.618410,  -7.455183,  -0.094624,   0.800095,   1.199475, -70.244752,  -0.444601,   0.979105,  -0.831327, -495.000000, -156.000000, -465.000000, -42.534444, -90.539336, 165.854816,   0.336463,   0.171806,  -0.688414,   0.619102, 
15662,   6.458237,  -7.317823,  -0.063331,   0.507581,   1.091614, -69.429888,  -0.456551,   0.972863,  -0.830608, -501.000000, -157.500000, -465.000000, -43.191648, -90.532216, 165.705456,   0.340836,   0.174841,  -0.687584,   0.616766, 
15663,   6.414196,  -7.326090,  -0.112583,   0.587883,   1.182159, -66.748816,  -0.466696,   0.950960,  -0.841599, -505.500000, -165.000000, -468.000000, -43.811716, -90.531720, 165.591984,   0.344812,   0.177850,  -0.686786,   0.614585, 
15664,   6.559482,  -7.190109,  -0.040981,   0.420719,   1.026499, -63.614552,  -0.463455,   0.953041,  -0.850998, -504.000000, -165.000000, -471.000000, -44.404440, -90.526184, 165.458800,   0.348718,   0.180588,  -0.686013,   0.612423, 
15665,   6.688566,  -7.132155,  -0.132832,   0.439656,   1.078389, -60.982240,  -0.459482,   0.966799,  -0.849589, -502.500000, -160.500000, -471.000000, -44.979632, -90.528672, 165.297440,   0.352688,   0.183031,  -0.685365,   0.610172, 
15666,   6.827889,  -6.954396,   0.011540,   0.291040,   1.074514, -58.896204,  -0.469952,   0.946073,  -0.841852, -507.000000, -166.500000, -468.000000, -45.545252, -90.517376, 165.137408,   0.356552,   0.185460,  -0.684625,   0.607992, 
15667,   6.766988,  -6.973640,  -0.063090,   0.517563,   0.965260, -56.953928,  -0.480097,   0.924170,  -0.852843, -511.500000, -174.000000, -471.000000, -46.083008, -90.508688, 165.010336,   0.360090,   0.187915,  -0.683899,   0.605977, 
15668,   6.805541,  -6.904799,  -0.057313,   0.357194,   0.934618, -53.722616,  -0.484663,   0.934582,  -0.864652, -514.500000, -171.000000, -475.500000, -46.581796, -90.509032, 164.884368,   0.363418,   0.190116,  -0.683278,   0.604015, 
15669,   6.860028,  -6.832185,  -0.067021,   0.368079,   0.902037, -50.211916,  -0.493015,   0.934856,  -0.872755, -519.000000, -171.000000, -478.500000, -47.048584, -90.505272, 164.755952,   0.366567,   0.192121,  -0.682676,   0.602144, 
15670,   7.043059,  -6.730805,  -0.079555,   0.117923,   0.909818, -47.823164,  -0.494620,   0.916300,  -0.870528, -519.000000, -177.000000, -477.000000, -47.499184, -90.504552, 164.635488,   0.369589,   0.194071,  -0.682110,   0.600327, 
15671,   7.205049,  -6.589036,  -0.014120,   0.130009,   0.903412, -46.550576,  -0.503126,   0.918566,  -0.864441, -523.500000, -175.500000, -475.500000, -47.957400, -90.495800, 164.492352,   0.372747,   0.195954,  -0.681522,   0.598444, 
15672,   7.167145,  -6.618933,  -0.061243,   0.341846,   0.859743, -45.129472,  -0.504014,   0.908881,  -0.861058, -523.500000, -178.500000, -474.000000, -48.392264, -90.491320, 164.360480,   0.375710,   0.197747,  -0.680954,   0.596616, 
15673,   7.252376,  -6.490512,  -0.030815,   0.209738,   0.775496, -43.680000,  -0.508688,   0.889058,  -0.853969, -525.000000, -184.500000, -471.000000, -48.815564, -90.482896, 164.239552,   0.378546,   0.199552,  -0.680373,   0.594880, 
15674,   7.297105,  -6.437144,  -0.085330,   0.314280,   0.825301, -42.585260,  -0.526092,   0.883543,  -0.861678, -534.000000, -186.000000, -474.000000, -49.232696, -90.483120, 164.141600,   0.381242,   0.201430,  -0.679813,   0.593185, 
15675,   7.214954,  -6.440688,  -0.048175,   0.212311,   0.720695, -40.460848,  -0.534445,   0.883817,  -0.869781, -538.500000, -186.000000, -477.000000, -49.614004, -90.479832, 164.052512,   0.383681,   0.203154,  -0.679258,   0.591630, 
15676,   7.204018,  -6.403689,  -0.077083,   0.281815,   0.732642, -37.497004,  -0.540582,   0.881285,  -0.860058, -541.500000, -186.000000, -474.000000, -49.962648, -90.476896, 163.963488,   0.385948,   0.204686,  -0.678768,   0.590180, 
15677,   7.321075,  -6.318198,  -0.050841,   0.184271,   0.690085, -34.247808,  -0.533135,   0.868519,  -0.858225, -537.000000, -190.500000, -472.500000, -50.285696, -90.476720, 163.875312,   0.388080,   0.206064,  -0.678340,   0.588800, 
15678,   7.421272,  -6.252385,   0.000704,   0.134224,   0.609593, -32.217166,  -0.539118,   0.863995,  -0.862692, -540.000000, -192.000000, -474.000000, -50.596892, -90.466416, 163.779568,   0.390170,   0.207364,  -0.677898,   0.587491, 
15679,   7.366537,  -6.213208,  -0.044529,   0.160074,   0.702621, -30.044324,  -0.540941,   0.876850,  -0.860635, -541.500000, -187.500000, -474.000000, -50.883588, -90.460664, 163.670576,   0.392196,   0.208420,  -0.677532,   0.586173, 
15680,   7.331606,  -6.205222,  -0.026161,   0.268927,   0.502592, -26.763736,  -0.538043,   0.877301,  -0.860959, -540.000000, -187.500000, -474.000000, -51.136744, -90.456040, 163.558448,   0.394065,   0.209259,  -0.677242,   0.584949, 
15681,   7.310683,  -6.258434,  -0.070943,   0.240225,   0.453207, -23.076818,  -0.550026,   0.865447,  -0.879546, -546.000000, -192.000000, -480.000000, -51.335976, -90.459088, 163.490832,   0.395441,   0.210018,  -0.677012,   0.584015, 
15682,   7.362356,  -6.137570,  -0.034804,   0.147868,   0.359222, -19.248276,  -0.550556,   0.860197,  -0.875585, -546.000000, -193.500000, -478.500000, -51.505912, -90.457920, 163.417408,   0.396688,   0.210586,  -0.676826,   0.583185, 
15683,   7.448517,  -6.121943,  -0.045626,   0.175187,   0.293349, -16.057100,  -0.539665,   0.855938,  -0.868384, -540.000000, -195.000000, -475.500000, -51.652588, -90.458552, 163.330960,   0.397883,   0.210935,  -0.676718,   0.582378, 
15684,   7.526849,  -6.088789,  -0.072889,   0.046372,   0.332933, -13.579412,  -0.541829,   0.867164,  -0.857252, -541.500000, -190.500000, -472.500000, -51.775868, -90.460392, 163.226784,   0.399051,   0.211038,  -0.676694,   0.581583, 
15685,   7.605534,  -6.012651,  -0.053824,  -0.046625,   0.306683, -11.786162,  -0.544369,   0.871148,  -0.856351, -543.000000, -189.000000, -472.500000, -51.890960, -90.462784, 163.113984,   0.400220,   0.211040,  -0.676705,   0.580781, 
15686,   7.682253,  -6.010112,  -0.068005,   0.025869,   0.324677, -10.547291,  -0.547454,   0.867076,  -0.861142, -544.500000, -190.500000, -474.000000, -51.999916, -90.462600, 163.005536,   0.401326,   0.211039,  -0.676700,   0.580023, 
15687,   7.752524,  -5.987233,  -0.060974,   0.027138,   0.308199,  -9.705317,  -0.550523,   0.865810,  -0.856281, -546.000000, -190.500000, -472.500000, -52.099544, -90.462568, 162.898960,   0.402371,   0.210993,  -0.676705,   0.579298, 
15688,   7.843509,  -5.907875,  -0.033684,  -0.121134,   0.249626,  -9.823065,  -0.556848,   0.859657,  -0.851673, -549.000000, -192.000000, -471.000000, -52.211604, -90.456360, 162.790336,   0.403477,   0.211028,  -0.676659,   0.578556, 
15689,   7.853680,  -5.871280,  -0.032403,   0.096171,   0.261172, -10.175352,  -0.554309,   0.855673,  -0.852574, -547.500000, -193.500000, -471.000000, -52.336512, -90.449760, 162.680080,   0.404654,   0.211132,  -0.676591,   0.577764, 
15690,   7.874298,  -5.981189,  -0.080718,   0.003496,   0.356718, -10.670743,  -0.545615,   0.857027,  -0.853546, -543.000000, -193.500000, -471.000000, -52.449828, -90.450152, 162.574144,   0.405763,   0.211169,  -0.676573,   0.576985, 
15691,   7.945470,  -5.843898,  -0.022257,  -0.055778,   0.271782, -11.656338,  -0.555197,   0.845987,  -0.849192, -547.500000, -196.500000, -469.500000, -52.581996, -90.444496, 162.475456,   0.406919,   0.211380,  -0.676477,   0.576200, 
15692,   8.060033,  -5.834296,  -0.033200,   0.067287,   0.290228, -13.221184,  -0.558454,   0.841100,  -0.849445, -549.000000, -198.000000, -469.500000, -52.739992, -90.438352, 162.378592,   0.408195,   0.211757,  -0.676328,   0.575331, 
15693,   8.142194,  -5.827528,  -0.038485,   0.047010,   0.447532, -15.533595,  -0.553950,   0.860108,  -0.851997, -547.500000, -192.000000, -471.000000, -52.920248, -90.429720, 162.252912,   0.409723,   0.212103,  -0.676181,   0.574295, 
15694,   8.181905,  -5.688212,  -0.046946,  -0.009129,   0.380426, -18.259430,  -0.562628,   0.861560,  -0.841372, -552.000000, -190.500000, -468.000000, -53.137600, -90.423520, 162.122832,   0.411463,   0.212634,  -0.675987,   0.573094, 
15695,   8.167351,  -5.705915,  -0.028772,   0.236809,   0.472911, -20.952986,  -0.572089,   0.842915,  -0.870512, -556.500000, -198.000000, -477.000000, -53.380272, -90.411056, 162.019104,   0.413186,   0.213492,  -0.675669,   0.571931, 
15696,   8.216718,  -5.782926,  -0.034358,   0.172997,   0.558831, -23.328068,  -0.571342,   0.816754,  -0.874302, -555.000000, -207.000000, -477.000000, -53.634108, -90.400608, 161.944912,   0.414812,   0.214579,  -0.675273,   0.570809, 
15697,   8.211907,  -5.659426,  -0.021326,   0.066264,   0.553141, -26.244832,  -0.562819,   0.817294,  -0.870736, -550.500000, -207.000000, -475.500000, -53.917856, -90.391264, 161.875392,   0.416561,   0.215864,  -0.674813,   0.569584, 
15698,   8.250934,  -5.627123,   0.000232,   0.277683,   0.646233, -28.834328,  -0.567677,   0.834496,  -0.844513, -553.500000, -199.500000, -468.000000, -54.233152, -90.374368, 161.825248,   0.418357,   0.217476,  -0.674221,   0.568356, 
15699,   8.191535,  -5.679390,  -0.045688,   0.212658,   0.607563, -31.220336,  -0.579286,   0.829883,  -0.852870, -559.500000, -201.000000, -471.000000, -54.553976, -90.366928, 161.778624,   0.420179,   0.219108,  -0.673660,   0.567065, 
15700,   8.123536,  -5.588174,  -0.011313,   0.351772,   0.592777, -32.315636,  -0.586174,   0.812867,  -0.863607, -562.500000, -207.000000, -474.000000, -54.888752, -90.354464, 161.696544,   0.422232,   0.220631,  -0.673114,   0.565617, 
15701,   8.240565,  -5.563223,  -0.019867,   0.234238,   0.667267, -33.464398,  -0.586328,   0.814859,  -0.849417, -562.500000, -205.500000, -469.500000, -55.235364, -90.342264, 161.656512,   0.424121,   0.222462,  -0.672444,   0.564256, 
15702,   8.212258,  -5.500410,  -0.050723,   0.322581,   0.677780, -34.855704,  -0.582559,   0.822190,  -0.862776, -561.000000, -204.000000, -474.000000, -55.593788, -90.334016, 161.650656,   0.425908,   0.224549,  -0.671705,   0.562955, 
15703,   8.148755,  -5.489531,  -0.042927,   0.366247,   0.666263, -35.351500,  -0.591986,   0.809158,  -0.872611, -565.500000, -208.500000, -477.000000, -55.949764, -90.327160, 161.646352,   0.427677,   0.226626,  -0.670976,   0.561661, 
15704,   8.177070,  -5.478969,  -0.064545,   0.340875,   0.674286, -35.534396,  -0.586361,   0.809246,  -0.868722, -562.500000, -208.500000, -475.500000, -56.301200, -90.323096, 161.644896,   0.429412,   0.228682,  -0.670260,   0.560375, 
15705,   8.222242,  -5.408300,  -0.032291,   0.340788,   0.665390, -35.534556,  -0.589446,   0.805174,  -0.873513, -564.000000, -210.000000, -477.000000, -56.654768, -90.316784, 161.641056,   0.431152,   0.230738,  -0.669512,   0.559067, 
15706,   8.224906,  -5.348644,  -0.022788,   0.255561,   0.736930, -35.499412,  -0.594713,   0.809521,  -0.876825, -567.000000, -208.500000, -478.500000, -57.007412, -90.307704, 161.634848,   0.432892,   0.232784,  -0.668758,   0.557769, 
15707,   8.252082,  -5.317415,  -0.033187,   0.254939,   0.711348, -35.282304,  -0.582233,   0.821012,  -0.881503, -561.000000, -205.500000, -480.000000, -57.354948, -90.300712, 161.629632,   0.434606,   0.234800,  -0.668022,   0.556482, 
15708,   8.322539,  -5.254464,  -0.036750,   0.306767,   0.737789, -35.307364,  -0.590335,   0.795488,  -0.870130, -564.000000, -213.000000, -475.500000, -57.706112, -90.296080, 161.626816,   0.436328,   0.236841,  -0.667283,   0.555173, 
15709,   8.433321,  -5.153867,  -0.034676,   0.221101,   0.664021, -35.857912,  -0.600617,   0.778384,  -0.857278, -568.500000, -217.500000, -471.000000, -58.068644, -90.286728, 161.619808,   0.438102,   0.238933,  -0.666484,   0.553814, 
15710,   8.563182,  -5.045133,  -0.000584,   0.258430,   0.709747, -37.344888,  -0.600463,   0.776392,  -0.871468, -568.500000, -219.000000, -475.500000, -58.457996, -90.268032, 161.604352,   0.440026,   0.241169,  -0.665601,   0.552374, 
15711,   8.731104,  -5.041635,  -0.023527,   0.382641,   0.706326, -39.710784,  -0.606054,   0.781916,  -0.856053, -571.500000, -216.000000, -471.000000, -58.869896, -90.252344, 161.592112,   0.442050,   0.243542,  -0.664679,   0.550842, 
15712,   8.789226,  -4.916027,  -0.010025,   0.122968,   0.805965, -42.975476,  -0.615416,   0.780110,  -0.827278, -576.000000, -214.500000, -462.000000, -59.319060, -90.237952, 161.579872,   0.444244,   0.246120,  -0.663668,   0.549144, 
15713,   8.772236,  -4.835601,  -0.004195,   0.481327,   0.886601, -46.198888,  -0.618706,   0.769610,  -0.846837, -577.500000, -219.000000, -468.000000, -59.803800, -90.215608, 161.561392,   0.446611,   0.248894,  -0.662541,   0.547317, 
15714,   8.708730,  -4.854794,  -0.031239,   0.433419,   0.848069, -48.549896,  -0.630860,   0.756941,  -0.860886, -583.500000, -223.500000, -472.500000, -60.297692, -90.201280, 161.551184,   0.448998,   0.251738,  -0.661417,   0.545439, 
15715,   8.611655,  -4.855575,  -0.034914,   0.556018,   0.913787, -49.565620,  -0.628304,   0.755764,  -0.852135, -582.000000, -223.500000, -469.500000, -60.786968, -90.188672, 161.542464,   0.451344,   0.254550,  -0.660285,   0.543557, 
15716,   8.574814,  -4.793971,  -0.033966,   0.324163,   0.877659, -49.777684,  -0.631015,   0.758933,  -0.846696, -583.500000, -222.000000, -468.000000, -61.269228, -90.177944, 161.535072,   0.453645,   0.257318,  -0.659164,   0.541686, 
15717,   8.619752,  -4.655337,  -0.005209,   0.453307,   0.931323, -49.662172,  -0.634817,   0.745990,  -0.852642, -585.000000, -226.500000, -469.500000, -61.761524, -90.162296, 161.522544,   0.456006,   0.260134,  -0.658010,   0.539782, 
15718,   8.532066,  -4.719333,  -0.037775,   0.494047,   0.855501, -48.810184,  -0.642235,   0.723724,  -0.859419, -588.000000, -234.000000, -471.000000, -62.229588, -90.153104, 161.516416,   0.458219,   0.262812,  -0.656902,   0.537942, 
15719,   8.586489,  -4.598217,  -0.036172,   0.367479,   0.794219, -47.118492,  -0.648235,   0.716393,  -0.873538, -591.000000, -237.000000, -475.500000, -62.681324, -90.144032, 161.510432,   0.460348,   0.265395,  -0.655825,   0.536160, 
15720,   8.798718,  -4.452811,   0.011016,   0.241505,   0.866912, -46.680540,  -0.653159,   0.722369,  -0.885925, -594.000000, -235.500000, -480.000000, -63.144868, -90.131896, 161.500048,   0.462545,   0.268034,  -0.654717,   0.534330, 
15721,   8.709743,  -4.391377,   0.040953,   0.527656,   0.875692, -46.573764,  -0.656416,   0.717482,  -0.886179, -595.500000, -237.000000, -480.000000, -63.606120, -90.103760, 161.475696,   0.464742,   0.270635,  -0.653551,   0.532524, 
15722,   8.792585,  -4.398934,  -0.030303,   0.316946,   0.844922, -45.722776,  -0.659998,   0.713773,  -0.867705, -597.000000, -237.000000, -474.000000, -64.046812, -90.096384, 161.471136,   0.466792,   0.273146,  -0.652475,   0.530756, 
15723,   9.054436,  -4.218821,  -0.005671,   0.243968,   0.839504, -46.043748,  -0.667975,   0.721289,  -0.865578, -601.500000, -234.000000, -474.000000, -64.508940, -90.078848, 161.455424,   0.468969,   0.275757,  -0.651329,   0.528912, 
15724,   9.124892,  -4.080648,   0.003668,   0.382025,   0.930288, -48.148668,  -0.666494,   0.706805,  -0.858559, -600.000000, -238.500000, -471.000000, -65.000612, -90.055784, 161.435664,   0.471270,   0.278527,  -0.650077,   0.526944, 
15725,   8.973701,  -4.055164,   0.011674,   0.569843,   0.798013, -49.390564,  -0.671885,   0.678112,  -0.852625, -601.500000, -247.500000, -468.000000, -65.499640, -90.027664, 161.411952,   0.473601,   0.281334,  -0.648782,   0.524946, 
15726,   8.924109,  -4.118170,  -0.036213,   0.503664,   0.833969, -49.541500,  -0.677510,   0.678023,  -0.856515, -604.500000, -247.500000, -469.500000, -65.978936, -90.010072, 161.399008,   0.475815,   0.284047,  -0.647559,   0.523014, 
15727,   8.912395,  -3.977663,  -0.008664,   0.356322,   0.928246, -48.756252,  -0.676264,   0.692144,  -0.859320, -604.500000, -243.000000, -471.000000, -66.455344, -89.996552, 161.388368,   0.477997,   0.286731,  -0.646332,   0.521059, 
15728,   8.877613,  -3.915376,   0.009610,   0.380598,   0.898025, -47.496532,  -0.685504,   0.682733,  -0.864040, -609.000000, -246.000000, -472.500000, -66.921096, -89.974728, 161.369344,   0.480139,   0.289338,  -0.645107,   0.519152, 
15729,   8.950666,  -3.883285,   0.000078,   0.435655,   0.893446, -46.234076,  -0.696145,   0.661193,  -0.851766, -613.500000, -252.000000, -468.000000, -67.368800, -89.952232, 161.349968,   0.482197,   0.291846,  -0.643926,   0.517322, 
15730,   9.003754,  -3.768100,  -0.019447,   0.315486,   0.794424, -45.157992,  -0.690878,   0.656846,  -0.848454, -610.500000, -253.500000, -466.500000, -67.810720, -89.940984, 161.340352,   0.484197,   0.294320,  -0.642767,   0.515476, 
15731,   9.069411,  -3.680498,   0.007396,   0.317227,   0.808062, -44.418952,  -0.688901,   0.641999,  -0.864700, -609.000000, -259.500000, -471.000000, -68.246880, -89.919416, 161.321408,   0.486179,   0.296750,  -0.641592,   0.513665, 
15732,   9.165279,  -3.570836,   0.004317,   0.305057,   0.772626, -44.201180,  -0.694714,   0.638290,  -0.873705, -612.000000, -261.000000, -474.000000, -68.685944, -89.894280, 161.298576,   0.488180,   0.299190,  -0.640404,   0.511844, 
15733,   9.267000,  -3.495325,  -0.006741,   0.294364,   0.791707, -44.535532,  -0.697066,   0.645895,  -0.867688, -613.500000, -258.000000, -472.500000, -69.131104, -89.875624, 161.282352,   0.490182,   0.301668,  -0.639200,   0.509975, 
15734,   9.283031,  -3.396990,   0.006493,   0.317101,   0.917775, -45.390768,  -0.706648,   0.634855,  -0.863334, -618.000000, -261.000000, -471.000000, -69.587976, -89.849408, 161.258656,   0.492236,   0.304196,  -0.637936,   0.508053, 
15735,   9.350289,  -3.329209,   0.024942,   0.374653,   0.877098, -46.366552,  -0.707039,   0.624806,  -0.883216, -618.000000, -265.500000, -477.000000, -70.054392, -89.815880, 161.228352,   0.494340,   0.306774,  -0.636635,   0.506100, 
15736,   9.444216,  -3.295392,  -0.004629,   0.405860,   0.835339, -47.566992,  -0.696710,   0.609684,  -0.891359, -612.000000, -271.500000, -478.500000, -70.528104, -89.791784, 161.207168,   0.496448,   0.309397,  -0.635319,   0.504090, 
15737,   9.555316,  -3.144073,   0.015056,   0.235588,   0.932373, -49.554316,  -0.702506,   0.608782,  -0.890711, -615.000000, -271.500000, -478.500000, -71.026152, -89.761104, 161.178912,   0.498659,   0.312137,  -0.633912,   0.501965, 
15738,   9.730402,  -2.975140,   0.026050,   0.201126,   0.924321, -52.902572,  -0.711045,   0.605435,  -0.903929, -619.500000, -273.000000, -483.000000, -71.571888, -89.717640, 161.137184,   0.501099,   0.315125,  -0.632360,   0.499640, 
15739,   9.680459,  -2.928206,   0.036070,   0.538610,   1.070967, -56.371620,  -0.706684,   0.588596,  -0.906888, -616.500000, -279.000000, -483.000000, -72.147688, -89.658576, 161.081712,   0.503658,   0.318262,  -0.630672,   0.497184, 
15740,   9.557495,  -2.953680,  -0.014765,   0.461451,   1.072232, -58.684536,  -0.709907,   0.589322,  -0.887836, -618.000000, -277.500000, -477.000000, -72.729528, -89.622608, 161.049648,   0.506195,   0.321458,  -0.628997,   0.494666, 
15741,   9.387389,  -2.844018,   0.032369,   0.443840,   1.000402, -59.406412,  -0.724364,   0.592678,  -0.866911, -625.500000, -274.500000, -471.000000, -73.316944, -89.570200, 161.000432,   0.508768,   0.324659,  -0.627276,   0.492125, 
15742,   9.384140,  -2.843120,   0.015296,   0.667201,   1.017816, -58.796372,  -0.737203,   0.576751,  -0.862810, -631.500000, -279.000000, -469.500000, -73.891064, -89.523536, 160.958192,   0.511245,   0.327790,  -0.625575,   0.489619, 
15743,   9.262115,  -2.753697,   0.037267,   0.494334,   1.009338, -57.626432,  -0.734525,   0.567968,  -0.887554, -630.000000, -283.500000, -477.000000, -74.449520, -89.474216, 160.912672,   0.513658,   0.330833,  -0.623922,   0.487180, 
15744,   9.234082,  -2.668749,   0.000723,   0.385861,   0.910318, -55.572588,  -0.736334,   0.542984,  -0.900094, -630.000000, -292.500000, -480.000000, -74.985744, -89.437616, 160.878640,   0.515936,   0.333745,  -0.622325,   0.484796, 
15745,   9.267954,  -2.553063,   0.035874,   0.409768,   0.928992, -53.250244,  -0.752087,   0.523799,  -0.905321, -637.500000, -298.500000, -481.500000, -75.506728, -89.383824, 160.826928,   0.518167,   0.336556,  -0.620751,   0.482489, 
15746,   9.352831,  -2.516220,   0.023548,   0.395456,   0.942828, -50.924532,  -0.749906,   0.515380,  -0.906801, -636.000000, -301.500000, -481.500000, -76.000176, -89.347320, 160.793184,   0.520251,   0.339236,  -0.619275,   0.480288, 
15747,   9.438704,  -2.357627,   0.034329,   0.161393,   0.941008, -49.639104,  -0.739715,   0.505056,  -0.891102, -630.000000, -304.500000, -475.500000, -76.485424, -89.292648, 160.739616,   0.522304,   0.341834,  -0.617781,   0.478108, 
15748,   9.602473,  -2.213504,   0.030336,   0.187311,   1.022965, -49.254436,  -0.745307,   0.510581,  -0.875686, -633.000000, -301.500000, -471.000000, -76.974416, -89.225880, 160.673488,   0.524383,   0.344444,  -0.616269,   0.475916, 
15749,   9.649459,  -2.144016,   0.057881,   0.196525,   1.076013, -49.314320,  -0.756540,   0.513211,  -0.873813, -639.000000, -300.000000, -471.000000, -77.465312, -89.152832, 160.600960,   0.526466,   0.347058,  -0.614743,   0.473710, 
15750,   9.721304,  -2.041484,   0.057897,   0.165535,   1.230730, -50.391068,  -0.754702,   0.503162,  -0.866217, -637.500000, -303.000000, -468.000000, -77.964184, -89.065712, 160.514960,   0.528567,   0.349700,  -0.613159,   0.471457, 
15751,   9.649454,  -1.937725,   0.028514,   0.067686,   1.544937, -51.622392,  -0.761386,   0.492574,  -0.862186, -640.500000, -306.000000, -466.500000, -78.479032, -88.967672, 160.416016,   0.530745,   0.352416,  -0.611532,   0.469123, 
15752,   9.605700,  -1.927526,   0.041768,   0.210490,   1.279405, -51.294816,  -0.761948,   0.481711,  -0.877531, -640.500000, -310.500000, -471.000000, -78.987872, -88.847896, 160.296384,   0.532894,   0.355089,  -0.609892,   0.466820, 
15753,   9.486157,  -1.885633,   0.018480,   0.275749,   1.170687, -49.903556,  -0.753645,   0.473017,  -0.898386, -636.000000, -315.000000, -477.000000, -79.476680, -88.748384, 160.198096,   0.534911,   0.357666,  -0.608315,   0.464577, 
15754,   9.501566,  -1.795890,   0.027508,   0.253779,   1.011352, -48.009388,  -0.753303,   0.474646,  -0.907461, -636.000000, -315.000000, -480.000000, -79.949712, -88.651760, 160.103184,   0.536853,   0.360169,  -0.606797,   0.462405, 
15755,   9.509148,  -1.727356,   0.019349,   0.053802,   1.074430, -46.191560,  -0.766126,   0.461525,  -0.893707, -642.000000, -318.000000, -475.500000, -80.401736, -88.548120, 159.999792,   0.538701,   0.362541,  -0.605330,   0.460311, 
15756,   9.577355,  -1.632493,   0.019922,  -0.043393,   1.101427, -44.425444,  -0.781675,   0.448768,  -0.884167, -649.500000, -321.000000, -472.500000, -80.836344, -88.450184, 159.900528,   0.540461,   0.364811,  -0.603918,   0.458271, 
15757,   9.589150,  -1.528591,   0.048999,  -0.276002,   1.205121, -43.381816,  -0.789076,   0.429308,  -0.881292, -652.500000, -327.000000, -471.000000, -81.263408, -88.318112, 159.765280,   0.542219,   0.367018,  -0.602516,   0.456272, 
15758,   9.579364,  -1.435807,   0.066694,  -0.236863,   1.097567, -41.773252,  -0.786569,   0.419711,  -0.901498, -651.000000, -331.500000, -477.000000, -81.681336, -88.164344, 159.607792,   0.543944,   0.369165,  -0.601131,   0.454313, 
15759,   9.497369,  -1.405948,   0.077316,  -0.078324,   0.992268, -39.667268,  -0.778421,   0.413009,  -0.908162, -646.500000, -334.500000, -478.500000, -82.076176, -87.989120, 159.430256,   0.545566,   0.371183,  -0.599792,   0.452462, 
15760,   9.625708,  -1.317139,   0.024628,  -0.047647,   0.939352, -37.814136,  -0.784063,   0.410114,  -0.921705, -649.500000, -336.000000, -483.000000, -82.451552, -87.839976, 159.279536,   0.547083,   0.373123,  -0.598542,   0.450692, 
15761,   9.718274,  -1.246641,   0.045432,  -0.186701,   0.972284, -36.648892,  -0.785714,   0.423784,  -0.924186, -651.000000, -331.500000, -484.500000, -82.817528, -87.675624, 159.112736,   0.548572,   0.375009,  -0.597326,   0.448965, 
15762,   9.789858,  -1.184315,   0.057811,  -0.281881,   0.947225, -36.371892,  -0.789483,   0.416453,  -0.910827, -652.500000, -333.000000, -480.000000, -83.176656, -87.484792, 158.918784,   0.550034,   0.376845,  -0.596118,   0.447264, 
15763,   9.772467,  -1.073732,   0.054216,  -0.375585,   0.981782, -36.615988,  -0.796510,   0.404236,  -0.897721, -655.500000, -336.000000, -475.500000, -83.542360, -87.269232, 158.699216,   0.551510,   0.378701,  -0.594873,   0.445514, 
15764,   9.883698,  -1.018603,   0.036788,  -0.331993,   0.961324, -37.120648,  -0.793270,   0.406316,  -0.907120, -654.000000, -336.000000, -478.500000, -83.913016, -87.027944, 158.453568,   0.553000,   0.380578,  -0.593608,   0.443732, 
15765,   9.920540,  -0.925467,   0.081388,  -0.278997,   0.919999, -38.226068,  -0.793815,   0.398260,  -0.912813, -654.000000, -339.000000, -480.000000, -84.293632, -86.725800, 158.147680,   0.554538,   0.382502,  -0.592294,   0.441912, 
15766,   9.943454,  -0.672291,   0.211567,   0.255337,   0.921986, -39.342828,  -0.788720,   0.393098,  -0.904963, -651.000000, -340.500000, -477.000000, -84.707576, -86.248136, 157.668320,   0.556243,   0.384573,  -0.590801,   0.439968, 
15767,   9.924097,  -0.807316,   0.092708,   0.326188,   0.924349, -40.595232,  -0.788720,   0.393098,  -0.904963, -651.000000, -340.500000, -477.000000, -85.106832, -85.851832, 157.275584,   0.557802,   0.386636,  -0.589401,   0.438073, 
15768,   9.940184,  -0.738179,   0.059236,   0.550137,   0.811734, -41.647820,  -0.798506,   0.375631,  -0.915376, -655.500000, -346.500000, -480.000000, -85.520144, -85.367320, 156.794048,   0.559402,   0.388757,  -0.587935,   0.436093, 
15769,   9.848120,  -0.669902,   0.088104,   0.517368,   0.806939, -42.605592,  -0.797197,   0.360332,  -0.903820, -654.000000, -351.000000, -475.500000, -85.941080, -84.768984, 156.199344,   0.561041,   0.390928,  -0.586447,   0.434086, 
15770,   9.803432,  -0.651922,   0.050013,   0.389274,   0.850868, -42.771576,  -0.802463,   0.364679,  -0.907132, -657.000000, -349.500000, -477.000000, -86.360464, -84.094432, 155.528592,   0.562626,   0.393086,  -0.584952,   0.432051, 
15771,   9.830843,  -0.561041,   0.056181,   0.492716,   0.913574, -42.638780,  -0.817841,   0.352736,  -0.902130, -664.500000, -352.500000, -475.500000, -86.780832, -83.190504, 154.628144,   0.564249,   0.395253,  -0.583452,   0.430026, 
15772,   9.841910,  -0.503770,   0.059253,   0.518047,   0.832343, -42.857512,  -0.819634,   0.330559,  -0.905017, -664.500000, -360.000000, -475.500000, -87.201592, -82.000120, 153.441152,   0.565865,   0.397413,  -0.581928,   0.427982, 
15773,   9.989302,  -0.385021,   0.071056,   0.459377,   0.846373, -43.623776,  -0.810443,   0.331550,  -0.929254, -660.000000, -361.500000, -483.000000, -87.627768, -80.382752, 151.827440,   0.567488,   0.399605,  -0.580369,   0.425893, 
15774,   9.998930,  -0.242760,   0.062306,   0.487867,   0.937825, -45.257984,  -0.798664,   0.336977,  -0.925435, -654.000000, -360.000000, -481.500000, -88.071560, -77.872336, 149.320336,   0.569186,   0.401885,  -0.578711,   0.423692, 
15775,   9.864722,  -0.253331,   0.072577,   0.585422,   0.983962, -46.248228,  -0.802792,   0.325211,  -0.912654, -655.500000, -363.000000, -477.000000, -88.514576, -73.828120, 145.280560,   0.570902,   0.404201,  -0.577038,   0.421474, 
15776,   9.779564,  -0.214572,   0.070658,   0.505090,   0.956199, -46.301824,  -0.814742,   0.318970,  -0.911935, -661.500000, -364.500000, -477.000000, -88.942784, -66.557008, 138.013376,   0.572591,   0.406500,  -0.575367,   0.419248, 
15777,   9.806113,  -0.135449,   0.046844,   0.462976,   0.890271, -45.485384,  -0.827581,   0.303043,  -0.907834, -667.500000, -369.000000, -475.500000, -89.328560, -50.827060, 122.287632,   0.574232,   0.408773,  -0.573735,   0.417045, 
15778,   9.683920,  -0.053998,   0.083169,   0.577361,   0.821877, -44.694336,  -0.827956,   0.295801,  -0.918064, -667.500000, -372.000000, -478.500000, -89.560320,  -9.897083,  81.361832,   0.575873,   0.410996,  -0.572078,   0.414874, 
15779,   9.705917,  -0.017500,   0.075095,   0.467541,   0.893492, -43.100664,  -0.822502,   0.295075,  -0.909637, -664.500000, -372.000000, -475.500000, -89.440824,  38.454136,  33.014900,   0.577389,   0.413108,  -0.570496,   0.412780, 
15780,   9.815402,   0.152909,   0.106323,   0.460067,   0.952995, -42.287416,  -0.817765,   0.285478,  -0.902365, -661.500000, -375.000000, -472.500000, -89.111552,  59.890568,  11.581931,   0.578925,   0.415199,  -0.568920,   0.410713, 
15781,   9.769403,   0.199722,   0.066864,   0.534235,   0.862846, -42.099640,  -0.818515,   0.270994,  -0.922825, -661.500000, -381.000000, -478.500000, -88.726360,  69.171448,   2.305112,   0.580456,   0.417299,  -0.567339,   0.408639, 
15782,   9.702958,   0.228523,   0.082979,   0.457643,   0.887141, -41.244268,  -0.827038,   0.270454,  -0.926391, -666.000000, -381.000000, -480.000000, -88.334240,  73.952136,  -2.471349,   0.581929,   0.419326,  -0.565777,   0.406611, 
15783,   9.685976,   0.286348,   0.060400,   0.427319,   0.820020, -40.073792,  -0.827054,   0.267647,  -0.936043, -666.000000, -382.500000, -483.000000, -87.948240,  76.878792,  -5.394588,   0.583342,   0.421290,  -0.564273,   0.404634, 
15784,   9.703792,   0.398689,   0.093593,   0.368969,   0.812234, -38.910316,  -0.828113,   0.257147,  -0.928123, -666.000000, -385.500000, -480.000000, -87.564664,  78.834720,  -7.346966,   0.584738,   0.423224,  -0.562792,   0.402693, 
15785,   9.764150,   0.470366,   0.080583,   0.440461,   0.759088, -38.055648,  -0.835123,   0.247736,  -0.905365, -669.000000, -387.000000, -472.500000, -87.187504,  80.200640,  -8.709607,   0.586107,   0.425104,  -0.561334,   0.400798, 
15786,   9.846284,   0.555162,   0.097384,   0.411750,   0.715511, -37.697016,  -0.839267,   0.233164,  -0.902236, -670.500000, -391.500000, -471.000000, -86.813832,  81.234424,  -9.740664,   0.587432,   0.426939,  -0.559869,   0.398904, 
15787,   9.798368,   0.595510,   0.077973,   0.431548,   0.787612, -37.698412,  -0.840889,   0.211801,  -0.909661, -670.500000, -399.000000, -472.500000, -86.439760,  82.053288, -10.556185,   0.588745,   0.428771,  -0.558398,   0.397009, 
15788,   9.807948,   0.655135,   0.089298,   0.420002,   0.754324, -37.835484,  -0.842339,   0.191252,  -0.921624, -670.500000, -406.500000, -475.500000, -86.066520,  82.706952, -11.206517,   0.590078,   0.430610,  -0.556951,   0.395139, 
15789,   9.821813,   0.741342,   0.096542,   0.303570,   0.840349, -37.881652,  -0.841981,   0.195688,  -0.921046, -670.500000, -405.000000, -475.500000, -85.688704,  83.242784, -11.739495,   0.591403,   0.432443,  -0.555461,   0.393231, 
15790,   9.723459,   0.788396,   0.076693,   0.443170,   0.834925, -37.524356,  -0.846701,   0.208091,  -0.918666, -673.500000, -400.500000, -475.500000, -85.316792,  83.725720, -12.219159,   0.592677,   0.434252,  -0.553996,   0.391334, 
15791,   9.674265,   0.821743,   0.081923,   0.266482,   0.775545, -36.647396,  -0.843461,   0.210172,  -0.928064, -672.000000, -400.500000, -478.500000, -84.949648,  84.124528, -12.614965,   0.593955,   0.436045,  -0.552564,   0.389475, 
15792,   9.816397,   0.932485,   0.068566,   0.340081,   0.732983, -35.848604,  -0.853418,   0.191890,  -0.933940, -676.500000, -406.500000, -480.000000, -84.590200,  84.470896, -12.958347,   0.595186,   0.437792,  -0.551152,   0.387643, 
15793,   9.846674,   1.019003,   0.084523,   0.394077,   0.751490, -36.072016,  -0.840688,   0.177582,  -0.919143, -669.000000, -411.000000, -474.000000, -84.228376,  84.775920, -13.260091,   0.596407,   0.439539,  -0.549715,   0.385791, 
15794,   9.857427,   1.053098,   0.086790,   0.334605,   0.799682, -36.729376,  -0.829984,   0.169703,  -0.917056, -663.000000, -414.000000, -472.500000, -83.868032,  85.041696, -13.522723,   0.597618,   0.441271,  -0.548278,   0.383944, 
15795,   9.869514,   1.167783,   0.107811,   0.363158,   0.814322, -37.724804,  -0.837994,   0.171607,  -0.934234, -667.500000, -414.000000, -478.500000, -83.490632,  85.258312, -13.736519,   0.598910,   0.443073,  -0.546765,   0.382025, 
15796,   9.764407,   1.169619,   0.055750,   0.352613,   0.783039, -38.439112,  -0.840566,   0.169977,  -0.952638, -669.000000, -415.500000, -484.500000, -83.108120,  85.487056, -13.962379,   0.600204,   0.444919,  -0.545254,   0.380067, 
15797,   9.660069,   1.220059,   0.099203,   0.406116,   0.777489, -37.951268,  -0.844523,   0.159026,  -0.944394, -670.500000, -418.500000, -481.500000, -82.729672,  85.667616, -14.139791,   0.601478,   0.446721,  -0.543728,   0.378131, 
15798,   9.640781,   1.285112,   0.079038,   0.350693,   0.829704, -37.038108,  -0.845566,   0.151332,  -0.926821, -670.500000, -420.000000, -475.500000, -82.358456,  85.846552, -14.315545,   0.602698,   0.448486,  -0.542228,   0.376213, 
15799,   9.644969,   1.329998,   0.118641,   0.377298,   0.796143, -36.045308,  -0.848497,   0.145268,  -0.945802, -672.000000, -423.000000, -481.500000, -81.997224,  85.986904, -14.452903,   0.603895,   0.450191,  -0.540755,   0.374354, 
15800,   9.578299,   1.372005,   0.095943,   0.353787,   0.721464, -34.997700,  -0.844727,   0.152599,  -0.959161, -670.500000, -421.500000, -486.000000, -81.645720,  86.112688, -14.575919,   0.605061,   0.451851,  -0.539324,   0.372545, 
15801,   9.600271,   1.460260,   0.078266,   0.245094,   0.834416, -33.826828,  -0.835082,   0.134219,  -0.949155, -664.500000, -427.500000, -481.500000, -81.304488,  86.239712, -14.700574,   0.606168,   0.453458,  -0.537933,   0.370770, 
15802,   9.619115,   1.515133,   0.082575,   0.310578,   0.697503, -32.731972,  -0.839072,   0.117654,  -0.960216, -666.000000, -433.500000, -484.500000, -80.975296,  86.349952, -14.808105,   0.607233,   0.455005,  -0.536584,   0.369059, 
15803,   9.536583,   1.563889,   0.101468,   0.394566,   0.693950, -31.643242,  -0.841065,   0.129695,  -0.953622, -667.500000, -429.000000, -483.000000, -80.657216,  86.443472, -14.898933,   0.608267,   0.456497,  -0.535276,   0.367411, 
15804,   9.537938,   1.592253,   0.099137,   0.314985,   0.701210, -30.251520,  -0.845210,   0.115122,  -0.950493, -669.000000, -433.500000, -481.500000, -80.351760,  86.530584, -14.983389,   0.609258,   0.457932,  -0.534024,   0.365828, 
15805,   9.538851,   1.647809,   0.092690,   0.243146,   0.628563, -28.826314,  -0.847920,   0.118292,  -0.945054, -670.500000, -432.000000, -480.000000, -80.061536,  86.616656, -15.066772,   0.610187,   0.459298,  -0.532835,   0.364315, 
15806,   9.531974,   1.706934,   0.090908,   0.334824,   0.591089, -27.407392,  -0.846440,   0.103808,  -0.938035, -669.000000, -436.500000, -477.000000, -79.782232,  86.684744, -15.132657,   0.611078,   0.460595,  -0.531673,   0.362857, 
15807,   9.543568,   1.742354,   0.085117,   0.238196,   0.579665, -26.198950,  -0.853654,   0.087970,  -0.930045, -672.000000, -441.000000, -474.000000, -79.517632,  86.749648, -15.194956,   0.611919,   0.461829,  -0.530575,   0.361476, 
15808,   9.635004,   1.828806,   0.108874,   0.271036,   0.584239, -25.284696,  -0.853108,   0.096026,  -0.924352, -672.000000, -438.000000, -472.500000, -79.263472,  86.809640, -15.252858,   0.612727,   0.463013,  -0.529521,   0.360148, 
15809,   9.672286,   1.882956,   0.144008,   0.184993,   0.584963, -25.181198,  -0.853466,   0.091591,  -0.924930, -672.000000, -439.500000, -472.500000, -79.012856,  86.851192, -15.292692,   0.613538,   0.464167,  -0.528470,   0.358847, 
15810,   9.673849,   1.924379,   0.109819,   0.237195,   0.610252, -25.432560,  -0.858920,   0.092317,  -0.933357, -675.000000, -439.500000, -475.500000, -78.761448,  86.896864, -15.337148,   0.614348,   0.465327,  -0.527424,   0.357535, 
15811,   9.707437,   2.011775,   0.069998,   0.212313,   0.625931, -25.859000,  -0.861631,   0.095486,  -0.927918, -676.500000, -438.000000, -474.000000, -78.502080,  86.955176, -15.393427,   0.615153,   0.466526,  -0.526340,   0.356166, 
15812,   9.664090,   2.025430,   0.130471,   0.264083,   0.560885, -26.381762,  -0.850397,   0.092857,  -0.929791, -670.500000, -439.500000, -474.000000, -78.237800,  86.992816, -15.429196,   0.615991,   0.467730,  -0.525217,   0.354785, 
15813,   9.593541,   2.042295,   0.112841,   0.281889,   0.558897, -26.764528,  -0.845334,   0.082082,  -0.941247, -667.500000, -444.000000, -477.000000, -77.971888,  87.037240, -15.471519,   0.616826,   0.468949,  -0.524094,   0.353389, 
15814,   9.545238,   2.078561,   0.100113,   0.265047,   0.658743, -26.380014,  -0.854045,   0.077921,  -0.949927, -672.000000, -445.500000, -480.000000, -77.706072,  87.086064, -15.517744,   0.617650,   0.470174,  -0.522974,   0.351990, 
15815,   9.519743,   2.134796,   0.104092,   0.289306,   0.608320, -25.788840,  -0.863986,   0.062446,  -0.946150, -676.500000, -450.000000, -478.500000, -77.445200,  87.126920, -15.556182,   0.618465,   0.471371,  -0.521870,   0.350622, 
15816,   9.541436,   2.160112,   0.107222,   0.194759,   0.672976, -25.362288,  -0.860137,   0.043163,  -0.935496, -673.500000, -456.000000, -474.000000, -77.189640,  87.166504, -15.593634,   0.619252,   0.472536,  -0.520783,   0.349273, 
15817,   9.559194,   2.222114,   0.093823,   0.185166,   0.584431, -25.285638,  -0.844246,   0.057550,  -0.954111, -666.000000, -453.000000, -480.000000, -76.936128,  87.209624, -15.634851,   0.620020,   0.473689,  -0.519703,   0.347924, 
15818,   9.540274,   2.300721,   0.127965,   0.184989,   0.557477, -25.338338,  -0.844588,   0.055921,  -0.945036, -666.000000, -453.000000, -477.000000, -76.680256,  87.240152, -15.663721,   0.620808,   0.474841,  -0.518603,   0.346572, 
15819,   9.522290,   2.297844,   0.125468,   0.210804,   0.621420, -24.997504,  -0.854512,   0.043251,  -0.931606, -670.500000, -456.000000, -472.500000, -76.430104,  87.276176, -15.697813,   0.621569,   0.475975,  -0.517533,   0.345244, 
15820,   9.513704,   2.347580,   0.091799,   0.184626,   0.622763, -24.745382,  -0.862196,   0.043978,  -0.967512, -675.000000, -457.500000, -484.500000, -76.181304,  87.312600, -15.732175,   0.622323,   0.477105,  -0.516471,   0.343924, 
15821,   9.592989,   2.401581,   0.115443,   0.219030,   0.613346, -24.832202,  -0.865111,   0.040720,  -0.976840, -676.500000, -459.000000, -487.500000, -75.934960,  87.345128, -15.762846,   0.623074,   0.478221,  -0.515418,   0.342617, 
15822,   9.641498,   2.497147,   0.098755,   0.246471,   0.608106, -25.850234,  -0.866495,   0.031397,  -0.950192, -676.500000, -460.500000, -478.500000, -75.679864,  87.379688, -15.795668,   0.623832,   0.479365,  -0.514316,   0.341251, 
15823,   9.626664,   2.537954,   0.113426,   0.257013,   0.611225, -26.981450,  -0.856150,   0.019082,  -0.948684, -670.500000, -465.000000, -477.000000, -75.411184,  87.408824, -15.822879,   0.624638,   0.480565,  -0.513149,   0.339820, 
15824,   9.605824,   2.572297,   0.122147,   0.233643,   0.649741, -28.164620,  -0.857989,   0.029131,  -0.956280, -672.000000, -462.000000, -480.000000, -75.134848,  87.438104, -15.850226,   0.625467,   0.481799,  -0.511949,   0.338348, 
15825,   9.512625,   2.601100,   0.090193,   0.243520,   0.636573, -29.000228,  -0.863239,   0.036284,  -0.949939, -675.000000, -459.000000, -478.500000, -74.848520,  87.477248, -15.887186,   0.626312,   0.483088,  -0.510717,   0.336813, 
15826,   9.470806,   2.629037,   0.092851,   0.312708,   0.653237, -29.190630,  -0.859064,   0.015824,  -0.958012, -672.000000, -466.500000, -480.000000, -74.556416,  87.515272, -15.922751,   0.627175,   0.484405,  -0.509459,   0.335248, 
15827,   9.365885,   2.646542,   0.123950,   0.234784,   0.692052, -28.590302,  -0.860327,  -0.001102,  -0.964859, -672.000000, -472.500000, -481.500000, -74.267544,  87.545984, -15.951028,   0.628018,   0.485687,  -0.508193,   0.333698, 
15828,   9.325451,   2.696960,   0.110699,   0.240933,   0.626222, -27.538346,  -0.860857,  -0.006352,  -0.960900, -672.000000, -474.000000, -480.000000, -73.986336,  87.573360, -15.976377,   0.628840,   0.486931,  -0.506959,   0.332188, 
15829,   9.368591,   2.710933,   0.129325,   0.264668,   0.623247, -26.363240,  -0.860515,  -0.004723,  -0.969975, -672.000000, -474.000000, -483.000000, -73.720168,  87.597936, -15.999023,   0.629619,   0.488108,  -0.505791,   0.330759, 
15830,   9.463258,   2.801011,   0.103535,   0.212238,   0.607829, -25.920238,  -0.857275,  -0.002643,  -0.979374, -670.500000, -474.000000, -486.000000, -73.461752,  87.623016, -16.021933,   0.630372,   0.489254,  -0.504658,   0.329372, 
15831,   9.452794,   2.877908,   0.120690,   0.284966,   0.622395, -26.521620,  -0.857959,  -0.005901,  -0.961224, -670.500000, -474.000000, -480.000000, -73.196232,  87.641224, -16.038475,   0.631156,   0.490421,  -0.503487,   0.327950, 
15832,   9.460737,   2.889669,   0.099445,   0.214192,   0.610967, -27.051546,  -0.867149,  -0.006892,  -0.936987, -675.000000, -472.500000, -472.500000, -72.928448,  87.668984, -16.063919,   0.631918,   0.491603,  -0.502307,   0.326502, 
15833,   9.533820,   2.999427,   0.129770,   0.256899,   0.623009, -27.968538,  -0.861353,  -0.005989,  -0.937634, -672.000000, -472.500000, -472.500000, -72.654536,  87.691728, -16.084885,   0.632702,   0.492799,  -0.501091,   0.325021, 
15834,   9.559182,   3.058229,   0.125081,   0.227376,   0.605936, -29.784216,  -0.859172,  -0.014409,  -0.939114, -670.500000, -475.500000, -472.500000, -72.362888,  87.714320, -16.106016,   0.633538,   0.494070,  -0.499798,   0.323442, 
15835,   9.641146,   3.125115,   0.099180,   0.287828,   0.687816, -32.314648,  -0.860076,  -0.026901,  -0.945384, -670.500000, -480.000000, -474.000000, -72.052368,  87.743648, -16.132765,   0.634417,   0.495435,  -0.498425,   0.321760, 
15836,   9.659378,   3.187847,   0.115293,   0.323291,   0.712257, -35.072660,  -0.863879,  -0.039844,  -0.951330, -672.000000, -484.500000, -475.500000, -71.714824,  87.775384, -16.162067,   0.635371,   0.496918,  -0.496936,   0.319928, 
15837,   9.615818,   3.208131,   0.142064,   0.397592,   0.777311, -37.990032,  -0.866590,  -0.036675,  -0.945891, -673.500000, -483.000000, -474.000000, -71.353800,  87.798240, -16.182383,   0.636384,   0.498472,  -0.495310,   0.317968, 
15838,   9.627687,   3.316213,   0.113374,   0.404051,   0.867388, -41.265508,  -0.863488,  -0.029796,  -0.931447, -672.000000, -480.000000, -469.500000, -70.961224,  87.828496, -16.208843,   0.637472,   0.500175,  -0.493546,   0.315835, 
15839,   9.605012,   3.378904,   0.134756,   0.394516,   0.894561, -44.478452,  -0.864254,  -0.047087,  -0.961560, -672.000000, -487.500000, -478.500000, -70.536648,  87.859648, -16.237143,   0.638653,   0.502011,  -0.491645,   0.313522, 
15840,   9.447710,   3.409098,   0.129210,   0.509318,   0.907164, -47.390516,  -0.856498,  -0.063837,  -0.988106, -667.500000, -495.000000, -486.000000, -70.078816,  87.888688, -16.262854,   0.639915,   0.503976,  -0.489575,   0.311025, 
15841,   9.356883,   3.484482,   0.111995,   0.571896,   1.011680, -49.355796,  -0.858632,  -0.087643,  -0.981919, -667.500000, -502.500000, -483.000000, -69.597272,  87.925136, -16.294746,   0.641211,   0.506043,  -0.487394,   0.308387, 
15842,   9.204718,   3.466822,   0.123898,   0.558356,   1.062409, -50.076428,  -0.862230,  -0.094159,  -0.973098, -669.000000, -504.000000, -480.000000, -69.104992,  87.956440, -16.321140,   0.642543,   0.508152,  -0.485156,   0.305697, 
15843,   9.044850,   3.518821,   0.121758,   0.464883,   0.939057, -49.690916,  -0.871250,  -0.094336,  -0.953398, -673.500000, -502.500000, -474.000000, -68.608392,  87.984200, -16.344757,   0.643872,   0.510256,  -0.482882,   0.302974, 
15844,   8.984978,   3.616051,   0.117050,   0.564293,   1.024730, -48.736784,  -0.871967,  -0.103207,  -0.954553, -673.500000, -505.500000, -474.000000, -68.118368,  88.011880, -16.368244,   0.645168,   0.512324,  -0.480630,   0.300278, 
15845,   8.872348,   3.640857,   0.122654,   0.429039,   0.865881, -46.992764,  -0.863477,  -0.108281,  -0.970292, -669.000000, -508.500000, -478.500000, -67.640424,  88.037936, -16.390526,   0.646433,   0.514340,  -0.478435,   0.297647, 
15846,   8.826654,   3.710063,   0.115934,   0.462438,   0.937764, -44.892744,  -0.857323,  -0.102942,  -0.970363, -666.000000, -507.000000, -478.500000, -67.181080,  88.064096, -16.413244,   0.647622,   0.516262,  -0.476314,   0.295104, 
15847,   8.856262,   3.825822,   0.121086,   0.445514,   0.861202, -43.240736,  -0.860750,  -0.108643,  -0.966079, -667.500000, -508.500000, -477.000000, -66.740900,  88.083576, -16.429321,   0.648762,   0.518090,  -0.474265,   0.292671, 
15848,   8.875565,   3.895422,   0.114064,   0.344420,   0.801883, -41.928752,  -0.871237,  -0.132175,  -0.967995, -672.000000, -516.000000, -477.000000, -66.317140,  88.108424, -16.450905,   0.649846,   0.519860,  -0.472306,   0.290318, 
15849,   8.875569,   3.982214,   0.154386,   0.403071,   0.858189, -40.742544,  -0.870332,  -0.119683,  -0.961725, -672.000000, -511.500000, -475.500000, -65.905600,  88.125360, -16.464872,   0.650900,   0.521557,  -0.470382,   0.288036, 
15850,   8.829569,   4.046874,   0.121497,   0.401232,   0.848583, -39.716756,  -0.862868,  -0.129643,  -0.950239, -667.500000, -514.500000, -471.000000, -65.501656,  88.145752, -16.481516,   0.651907,   0.523222,  -0.468487,   0.285787, 
15851,   8.775123,   4.094585,   0.111746,   0.376268,   0.796953, -38.802200,  -0.858848,  -0.148111,  -0.944122, -664.500000, -520.500000, -468.000000, -65.107064,  88.166392, -16.498535,   0.652889,   0.524849,  -0.466640,   0.283588, 
15852,   8.784022,   4.149909,   0.106473,   0.388515,   0.806342, -37.533204,  -0.861779,  -0.154176,  -0.963103, -666.000000, -523.500000, -474.000000, -64.725548,  88.183480, -16.512304,   0.653844,   0.526418,  -0.464849,   0.281465, 
15853,   8.811352,   4.231986,   0.151454,   0.349451,   0.735755, -36.854124,  -0.862871,  -0.170289,  -0.974488, -666.000000, -529.500000, -477.000000, -64.354844,  88.197152, -16.523111,   0.654754,   0.527918,  -0.463089,   0.279394, 
15854,   8.868008,   4.316727,   0.147344,   0.335204,   0.756978, -36.768808,  -0.857075,  -0.169386,  -0.975136, -663.000000, -529.500000, -477.000000, -63.990204,  88.208760, -16.466917,   0.655492,   0.529650,  -0.461051,   0.277729, 
15855,   8.808528,   4.404295,   0.147878,   0.365552,   0.765738, -37.170584,  -0.857963,  -0.179072,  -0.971754, -663.000000, -532.500000, -475.500000, -63.620020,  88.222288, -16.346561,   0.656081,   0.531669,  -0.458683,   0.276409, 
15856,   8.774433,   4.400464,   0.128408,   0.370952,   0.798415, -37.350772,  -0.868229,  -0.193369,  -0.949249, -667.500000, -535.500000, -468.000000, -63.248424,  88.235040, -16.233774,   0.656697,   0.533653,  -0.456341,   0.275035, 
15857,   8.797880,   4.497861,   0.135273,   0.343391,   0.747218, -37.712676,  -0.870956,  -0.193007,  -0.953463, -669.000000, -535.500000, -469.500000, -62.875220,  88.248680, -16.133261,   0.657323,   0.535578,  -0.454027,   0.273577, 
15858,   8.744563,   4.561852,   0.160165,   0.312429,   0.830326, -38.099308,  -0.859039,  -0.192378,  -0.973486, -663.000000, -537.000000, -475.500000, -62.495836,  88.260736, -16.027567,   0.657962,   0.537535,  -0.451661,   0.272108, 
15859,   8.688417,   4.588692,   0.149142,   0.356255,   0.836645, -38.586080,  -0.851420,  -0.204330,  -0.976191, -658.500000, -541.500000, -475.500000, -62.114876,  88.275920, -15.912899,   0.658573,   0.539548,  -0.449235,   0.270696, 
15860,   8.640228,   4.637976,   0.126390,   0.390285,   0.819219, -38.498980,  -0.852170,  -0.218814,  -0.996651, -658.500000, -547.500000, -481.500000, -61.732048,  88.290728, -15.924107,   0.659477,   0.541061,  -0.447385,   0.268544, 
15861,   8.619070,   4.726684,   0.136325,   0.364340,   0.838176, -38.281356,  -0.858496,  -0.224967,  -0.992043, -661.500000, -549.000000, -480.000000, -61.347684,  88.309520, -15.938922,   0.660357,   0.542576,  -0.445524,   0.266370, 
15862,   8.589873,   4.766970,   0.144987,   0.398910,   0.791580, -38.682140,  -0.858479,  -0.222160,  -0.982390, -661.500000, -547.500000, -477.000000, -60.963568,  88.321272, -15.829916,   0.660984,   0.544531,  -0.443095,   0.264885, 
15863,   8.589702,   4.840858,   0.134414,   0.451013,   0.826341, -38.820200,  -0.855956,  -0.228951,  -0.992944, -660.000000, -550.500000, -480.000000, -60.576948,  88.336024, -15.840651,   0.661880,   0.546047,  -0.441213,   0.262706, 
15864,   8.475469,   4.892128,   0.141859,   0.399098,   0.800166, -38.742908,  -0.855956,  -0.228951,  -0.992944, -660.000000, -550.500000, -480.000000, -60.188108,  88.349216, -15.850231,   0.662765,   0.547550,  -0.439306,   0.260507, 
15865,   8.495945,   4.923928,   0.156198,   0.339051,   0.827610, -38.621236,  -0.847450,  -0.231218,  -0.999031, -655.500000, -552.000000, -481.500000, -59.803732,  88.360696, -15.858178,   0.663636,   0.549027,  -0.437413,   0.258332, 
15866,   8.468849,   5.000890,   0.139523,   0.356280,   0.809070, -38.760628,  -0.844097,  -0.250137,  -0.965112, -652.500000, -556.500000, -469.500000, -59.418528,  88.370496, -15.743162,   0.664243,   0.550967,  -0.434931,   0.256860, 
15867,   8.391897,   5.052062,   0.118329,   0.330605,   0.808863, -38.813128,  -0.844284,  -0.253758,  -0.970227, -652.500000, -558.000000, -471.000000, -59.029276,  88.383808, -15.649175,   0.664891,   0.552857,  -0.432518,   0.255256, 
15868,   8.399786,   5.085092,   0.134935,   0.450559,   0.772742, -38.864668,  -0.850643,  -0.265524,  -0.984924, -655.500000, -562.500000, -475.500000, -58.644928,  88.396992, -15.547444,   0.665490,   0.554734,  -0.430074,   0.253716, 
15869,   8.433885,   5.186600,   0.131717,   0.391532,   0.806203, -39.308576,  -0.853199,  -0.264346,  -0.993675, -657.000000, -562.500000, -478.500000, -58.260484,  88.409288, -15.500508,   0.666214,   0.556396,  -0.427893,   0.251854, 
15870,   8.454109,   5.282230,   0.142556,   0.445316,   0.844943, -40.412564,  -0.850847,  -0.271951,  -0.999691, -655.500000, -565.500000, -480.000000, -57.867048,  88.423720, -15.510914,   0.667074,   0.557888,  -0.425941,   0.249614, 
15871,   8.348706,   5.287405,   0.131741,   0.447596,   0.819577, -41.901196,  -0.849896,  -0.291685,  -0.988713, -654.000000, -571.500000, -475.500000, -57.459148,  88.434504, -15.518061,   0.667963,   0.559412,  -0.423899,   0.247292, 
15872,   8.268060,   5.337960,   0.132355,   0.397809,   0.887674, -42.527144,  -0.847186,  -0.294855,  -0.994151, -652.500000, -573.000000, -477.000000, -57.040544,  88.446808, -15.526779,   0.668856,   0.560966,  -0.421800,   0.244899, 
15873,   8.220417,   5.393706,   0.129677,   0.441242,   0.941043, -42.508316,  -0.849725,  -0.290871,  -0.993250, -654.000000, -571.500000, -477.000000, -56.617620,  88.460392, -15.536285,   0.669753,   0.562541,  -0.419680,   0.242481, 
15874,   8.184100,   5.451150,   0.142429,   0.492393,   0.868739, -42.709196,  -0.849383,  -0.289242,  -1.002325, -654.000000, -571.500000, -480.000000, -56.195728,  88.471168, -15.543163,   0.670652,   0.564102,  -0.417557,   0.240072, 
15875,   8.099859,   5.499362,   0.140064,   0.518409,   0.849559, -42.970340,  -0.847560,  -0.302097,  -1.004382, -652.500000, -576.000000, -480.000000, -55.770824,  88.483448, -15.551164,   0.671525,   0.565657,  -0.415405,   0.237634, 
15876,   8.015314,   5.591334,   0.121791,   0.465877,   0.825290, -42.518804,  -0.843541,  -0.320565,  -0.998265, -649.500000, -582.000000, -477.000000, -55.340128,  88.497808, -15.561070,   0.672404,   0.567239,  -0.413229,   0.235160, 
15877,   8.052110,   5.664401,   0.153394,   0.422892,   0.871373, -42.222556,  -0.840097,  -0.312057,  -0.992896, -648.000000, -579.000000, -475.500000, -54.916852,  88.508760, -15.568134,   0.673277,   0.568785,  -0.411085,   0.232731, 
15878,   8.152629,   5.746139,   0.150658,   0.415296,   0.868337, -42.823196,  -0.844208,  -0.321016,  -0.970462, -649.500000, -580.500000, -468.000000, -54.502788,  88.521176, -15.576711,   0.674100,   0.570281,  -0.408978,   0.230343, 
15879,   8.083400,   5.812582,   0.162581,   0.435687,   0.950040, -44.240096,  -0.844771,  -0.331879,  -0.985807, -649.500000, -585.000000, -472.500000, -54.076348,  88.531672, -15.583239,   0.674949,   0.571812,  -0.406799,   0.227886, 
15880,   7.983579,   5.847885,   0.144746,   0.489526,   0.970280, -45.483668,  -0.845300,  -0.337129,  -0.981847, -649.500000, -586.500000, -471.000000, -53.632948,  88.543816, -15.590958,   0.675827,   0.573409,  -0.404536,   0.225329, 
15881,   7.939460,   5.890616,   0.142676,   0.541933,   0.939932, -46.179864,  -0.843820,  -0.351613,  -0.974828, -648.000000, -591.000000, -468.000000, -53.181752,  88.554184, -15.597088,   0.676708,   0.575013,  -0.402218,   0.222725, 
15882,   7.832517,   5.953100,   0.140741,   0.542538,   0.947233, -46.493036,  -0.829876,  -0.357412,  -0.982141, -640.500000, -594.000000, -469.500000, -52.721636,  88.565016, -15.603087,   0.677589,   0.576639,  -0.399845,   0.220066, 
15883,   7.801671,   6.007606,   0.132876,   0.551092,   0.919817, -46.632680,  -0.818659,  -0.362849,  -0.993667, -634.500000, -597.000000, -472.500000, -52.259060,  88.577032, -15.610018,   0.678471,   0.578278,  -0.397462,   0.217390, 
15884,   7.732405,   6.079341,   0.159556,   0.465683,   0.927754, -46.859752,  -0.827369,  -0.367009,  -1.002348, -639.000000, -598.500000, -475.500000, -51.796416,  88.587920, -15.616646,   0.679340,   0.579898,  -0.395070,   0.214707, 
15885,   7.713091,   6.155678,   0.144120,   0.484861,   1.059034, -47.274952,  -0.831155,  -0.377146,  -0.998641, -640.500000, -601.500000, -474.000000, -51.327248,  88.597328, -15.621770,   0.680209,   0.581521,  -0.392630,   0.211983, 
15886,   7.605279,   6.202948,   0.170561,   0.393257,   0.988987, -47.679472,  -0.830066,  -0.401679,  -1.011505, -639.000000, -610.500000, -477.000000, -50.852996,  88.605888, -15.626452,   0.681090,   0.583159,  -0.390163,   0.209228, 
15887,   7.496608,   6.246965,   0.146109,   0.493446,   1.049852, -47.327232,  -0.823553,  -0.391905,  -1.010998, -636.000000, -607.500000, -477.000000, -50.376160,  88.615672, -15.631970,   0.681953,   0.584795,  -0.387674,   0.206452, 
15888,   7.401122,   6.260549,   0.146522,   0.459729,   0.971252, -46.472244,  -0.826076,  -0.385114,  -1.000444, -637.500000, -604.500000, -474.000000, -49.903744,  88.627168, -15.638015,   0.682783,   0.586410,  -0.385200,   0.203699, 
15889,   7.273465,   6.332354,   0.156898,   0.488471,   0.936865, -45.057828,  -0.832964,  -0.402130,  -1.011181, -640.500000, -610.500000, -477.000000, -49.437436,  88.634408, -15.641286,   0.683618,   0.587989,  -0.382752,   0.200983, 
15890,   7.134764,   6.377158,   0.163501,   0.438170,   0.909216, -43.131652,  -0.833510,  -0.410187,  -1.016873, -640.500000, -613.500000, -478.500000, -48.978148,  88.640896, -15.643766,   0.684424,   0.589529,  -0.380329,   0.198305, 
15891,   7.143287,   6.403836,   0.134140,   0.437536,   0.860806, -40.795304,  -0.825175,  -0.413268,  -1.018423, -636.000000, -615.000000, -478.500000, -48.546024,  88.650016, -15.648779,   0.685157,   0.590974,  -0.378049,   0.195774, 
15892,   7.185117,   6.517240,   0.143513,   0.323457,   0.835903, -38.941344,  -0.817556,  -0.425220,  -1.021127, -631.500000, -619.500000, -478.500000, -48.138056,  88.655712, -15.651263,   0.685859,   0.592328,  -0.375891,   0.193389, 
15893,   7.206500,   6.584387,   0.144767,   0.390105,   0.865604, -38.123932,  -0.811948,  -0.427938,  -1.026891, -628.500000, -621.000000, -480.000000, -47.749696,  88.662928, -15.654778,   0.686515,   0.593620,  -0.373837,   0.191115, 
15894,   7.245291,   6.628851,   0.158726,   0.397636,   0.809770, -37.827012,  -0.801414,  -0.436632,  -1.020267, -622.500000, -624.000000, -477.000000, -47.372728,  88.669432, -15.658190,   0.687131,   0.594852,  -0.371832,   0.188900, 
15895,   7.252724,   6.714796,   0.144020,   0.424667,   0.855701, -38.306496,  -0.806243,  -0.454463,  -0.998988, -624.000000, -628.500000, -469.500000, -46.999864,  88.677784, -15.662449,   0.687732,   0.596079,  -0.369851,   0.186710, 
15896,   7.283455,   6.786830,   0.145479,   0.430704,   0.777434, -39.505916,  -0.809141,  -0.454914,  -0.998664, -625.500000, -628.500000, -469.500000, -46.622496,  88.686744, -15.667554,   0.688338,   0.597321,  -0.367849,   0.184490, 
15897,   7.356030,   6.870394,   0.138994,   0.378694,   0.875367, -41.457116,  -0.809516,  -0.462156,  -1.008893, -625.500000, -631.500000, -472.500000, -46.236644,  88.697624, -15.674134,   0.688938,   0.598587,  -0.365801,   0.182213, 
15898,   7.420655,   6.965875,   0.168131,   0.454996,   0.847332, -44.409000,  -0.813131,  -0.471478,  -1.009725, -627.000000, -634.500000, -472.500000, -45.832952,  88.705368, -15.677993,   0.689563,   0.599885,  -0.363639,   0.179833, 
15899,   7.446206,   7.071470,   0.175214,   0.528958,   0.963685, -48.511972,  -0.810730,  -0.470664,  -0.986784, -625.500000, -633.000000, -465.000000, -45.399552,  88.715248, -15.682687,   0.690226,   0.601286,  -0.361320,   0.177279, 
15900,   7.448745,   7.131253,   0.152716,   0.534106,   1.093009, -53.594076,  -0.801848,  -0.465688,  -0.982641, -621.000000, -631.500000, -463.500000, -44.927180,  88.726392, -15.688490,   0.690942,   0.602809,  -0.358792,   0.174490, 
15901,   7.470190,   7.157130,   0.136500,   0.729693,   1.184495, -59.227880,  -0.801351,  -0.466051,  -1.005906, -621.000000, -633.000000, -471.000000, -44.410176,  88.741384, -15.696091,   0.691679,   0.604461,  -0.356012,   0.171430, 
15902,   7.341233,   7.197470,   0.087435,   0.654621,   1.328600, -64.743804,  -0.803128,  -0.485422,  -0.999141, -621.000000, -639.000000, -468.000000, -43.837676,  88.760880, -15.706211,   0.692482,   0.606304,  -0.352940,   0.168040, 
15903,   7.465296,   7.408804,   0.182668,   0.855410,   1.380156, -71.424536,  -0.795680,  -0.498189,  -0.997308, -616.500000, -643.500000, -466.500000, -43.158228,  88.771472, -15.709704,   0.693456,   0.608414,  -0.349253,   0.164020, 
15904,   7.169400,   7.280550,   0.132375,   0.869414,   1.490527, -77.897408,  -0.784463,  -0.503625,  -1.008834, -610.500000, -646.500000, -469.500000, -42.468440,  88.788488, -15.717468,   0.694398,   0.610565,  -0.345514,   0.159926, 
15905,   6.923016,   7.469072,   0.097814,   0.927921,   1.553630, -82.760600,  -0.788983,  -0.525439,  -1.015935, -612.000000, -654.000000, -471.000000, -41.697388,  88.811032, -15.728215,   0.695397,   0.612954,  -0.341325,   0.155340, 
15906,   6.595560,   7.488208,   0.160239,   1.074968,   1.615767, -85.830000,  -0.787364,  -0.544722,  -1.032759, -610.500000, -661.500000, -475.500000, -40.877256,  88.830712, -15.736748,   0.696455,   0.615459,  -0.336850,   0.150458, 
15907,   6.143453,   7.324612,   0.036430,   1.046402,   1.623916, -86.378456,  -0.791696,  -0.562916,  -1.034745, -612.000000, -667.500000, -475.500000, -40.015688,  88.856400, -15.748323,   0.697483,   0.618064,  -0.332132,   0.145315, 
15908,   5.749335,   7.637144,   0.157705,   0.940728,   1.548398, -83.589256,  -0.785729,  -0.561198,  -1.039930, -609.000000, -667.500000, -477.000000, -39.128468,  88.869792, -15.751845,   0.698575,   0.620670,  -0.327235,   0.140025, 
15909,   5.376810,   7.435810,   0.063840,   0.945164,   1.469849, -78.236360,  -0.774854,  -0.568263,  -1.042381, -603.000000, -670.500000, -477.000000, -38.269372,  88.891080, -15.760871,   0.699547,   0.623187,  -0.322494,   0.134881, 
15910,   5.147106,   7.813926,   0.184812,   0.855652,   1.280387, -71.024040,  -0.770117,  -0.577860,  -1.035109, -600.000000, -673.500000, -474.000000, -37.522724,  88.901792, -15.762712,   0.700392,   0.625316,  -0.318336,   0.130418, 
15911,   4.956577,   7.582761,   0.129267,   0.743678,   1.158660, -62.552696,  -0.765022,  -0.583021,  -1.027260, -597.000000, -675.000000, -471.000000, -36.855648,  88.911400, -15.764633,   0.701127,   0.627199,  -0.314614,   0.126424, 
15912,   4.909631,   7.970302,   0.221968,   0.625770,   1.051847, -53.872292,  -0.756857,  -0.586917,  -1.024272, -592.500000, -676.500000, -469.500000, -36.274744,  88.919056, -15.765978,   0.701748,   0.628817,  -0.311362,   0.122941, 
15913,   4.980042,   7.892186,   0.199292,   0.516289,   0.948797, -46.197396,  -0.751965,  -0.598506,  -1.031190, -589.500000, -681.000000, -471.000000, -35.733580,  88.918784, -15.762917,   0.702343,   0.630272,  -0.308309,   0.119700, 
15914,   5.076534,   7.953964,   0.134545,   0.426978,   0.756905, -40.240276,  -0.755410,  -0.607014,  -1.036558, -591.000000, -684.000000, -472.500000, -35.234460,  88.919712, -15.761140,   0.702886,   0.631618,  -0.305497,   0.116707, 
15915,   5.197785,   8.008393,   0.154372,   0.298672,   0.754626, -35.498628,  -0.748897,  -0.597240,  -1.036051, -588.000000, -681.000000, -472.500000, -34.819896,  88.927824, -15.764071,   0.703275,   0.632747,  -0.303167,   0.114209, 
15916,   5.224081,   8.090469,   0.131017,   0.326239,   0.665467, -32.027432,  -0.744706,  -0.614893,  -1.034472, -585.000000, -687.000000, -471.000000, -34.442236,  88.929448, -15.763198,   0.703653,   0.633744,  -0.301029,   0.111939, 
15917,   5.270329,   8.125114,   0.148500,   0.235874,   0.679523, -29.304152,  -0.743429,  -0.635805,  -1.042220, -583.500000, -694.500000, -472.500000, -34.094952,  88.928344, -15.761243,   0.704014,   0.634649,  -0.299060,   0.109852, 
15918,   5.302176,   8.163937,   0.175321,   0.258544,   0.661502, -27.589742,  -0.746686,  -0.640692,  -1.042474, -585.000000, -696.000000, -472.500000, -33.790648,  88.926048, -15.758214,   0.704336,   0.635436,  -0.297328,   0.108028, 
15919,   5.284034,   8.234953,   0.159300,   0.307112,   0.606333, -26.171606,  -0.743959,  -0.641055,  -1.038261, -583.500000, -696.000000, -471.000000, -33.504226,  88.930544, -15.759054,   0.704587,   0.636192,  -0.295704,   0.106303, 
15920,   5.333081,   8.241790,   0.189178,   0.211348,   0.610575, -25.380618,  -0.735077,  -0.636080,  -1.034118, -579.000000, -694.500000, -469.500000, -33.235638,  88.928808, -15.756972,   0.704851,   0.636869,  -0.294169,   0.104687, 
15921,   5.479182,   8.294466,   0.143680,   0.254860,   0.627031, -25.623532,  -0.732538,  -0.640063,  -1.035019, -577.500000, -696.000000, -469.500000, -32.993008,  88.931976, -15.757263,   0.705064,   0.637504,  -0.292791,   0.103226, 
15922,   5.597196,   8.442224,   0.191874,   0.181044,   0.653178, -27.512418,  -0.729656,  -0.642419,  -1.044996, -576.000000, -697.500000, -472.500000, -32.749706,  88.933048, -15.756527,   0.705289,   0.638131,  -0.291405,   0.101762, 
15923,   5.653872,   8.485183,   0.164588,   0.239071,   0.724662, -30.922066,  -0.723143,  -0.632645,  -1.044489, -573.000000, -694.500000, -472.500000, -32.478260,  88.932392, -15.754704,   0.705549,   0.638821,  -0.289854,   0.100130, 
15924,   5.665038,   8.607353,   0.222000,   0.229825,   0.801077, -35.141740,  -0.722614,  -0.627394,  -1.048449, -573.000000, -693.000000, -474.000000, -32.182876,  88.931400, -15.752659,   0.705822,   0.639560,  -0.288162,   0.098351, 
15925,   5.628556,   8.739866,   0.224769,   0.419421,   0.900416, -40.011532,  -0.726400,  -0.637531,  -1.044742, -574.500000, -696.000000, -472.500000, -31.843234,  88.932400, -15.751175,   0.706112,   0.640409,  -0.286215,   0.096306, 
15926,   5.472051,   8.735744,   0.240125,   0.452716,   0.941283, -44.205256,  -0.733442,  -0.652555,  -1.041289, -577.500000, -700.500000, -471.000000, -31.442676,  88.930120, -15.748034,   0.706474,   0.641393,  -0.283913,   0.093893, 
15927,   5.301856,   8.729359,   0.231180,   0.441497,   0.987118, -47.442060,  -0.722225,  -0.657991,  -1.052815, -571.500000, -703.500000, -474.000000, -31.009696,  88.930656, -15.746389,   0.706849,   0.642470,  -0.281432,   0.091281, 
15928,   5.182445,   8.830861,   0.248654,   0.549062,   1.046275, -49.754812,  -0.705025,  -0.658903,  -1.059874, -562.500000, -705.000000, -475.500000, -30.523094,  88.925224, -15.740994,   0.707270,   0.643624,  -0.278617,   0.088349, 
15929,   5.029121,   8.743412,   0.260435,   0.578202,   1.063295, -51.642724,  -0.711179,  -0.664242,  -1.059804, -565.500000, -706.500000, -475.500000, -30.014644,  88.918392, -15.734962,   0.707712,   0.644818,  -0.275671,   0.085285, 
15930,   4.904667,   8.788222,   0.267800,   0.536878,   1.076754, -52.513236,  -0.713890,  -0.661072,  -1.054365, -567.000000, -705.000000, -474.000000, -29.487604,  88.911032, -15.728884,   0.708168,   0.646051,  -0.272617,   0.082107, 
15931,   4.821852,   8.779665,   0.283112,   0.581142,   1.118392, -53.051588,  -0.716975,  -0.665145,  -1.059156, -568.500000, -706.500000, -475.500000, -28.935958,  88.892464, -15.717754,   0.708667,   0.647249,  -0.269385,   0.078781, 
15932,   4.599557,   8.790606,   0.286183,   0.641442,   1.145168, -53.006932,  -0.709528,  -0.677912,  -1.057323, -564.000000, -711.000000, -474.000000, -28.390768,  88.883720, -15.711217,   0.709109,   0.648482,  -0.266209,   0.075489, 
15933,   4.323449,   8.831889,   0.296547,   0.499463,   1.122958, -50.441520,  -0.699695,  -0.692670,  -1.042201, -558.000000, -715.500000, -468.000000, -27.806978,  88.864808, -15.699558,   0.709610,   0.649731,  -0.262777,   0.071969, 
15934,   4.371414,   8.848804,   0.311670,   0.407677,   0.967233, -47.869228,  -0.700224,  -0.697920,  -1.038241, -558.000000, -717.000000, -466.500000, -27.287276,  88.854856, -15.692943,   0.710002,   0.650860,  -0.259732,   0.068827, 
15935,   4.283061,   9.004637,   0.280429,   0.430094,   0.986657, -45.788640,  -0.697343,  -0.700275,  -1.048218, -556.500000, -718.500000, -469.500000, -26.784422,  88.844104, -15.686646,   0.710388,   0.651945,  -0.256786,   0.065785, 
15936,   4.169958,   8.931205,   0.293110,   0.443253,   0.944004, -43.674432,  -0.689008,  -0.703356,  -1.049767, -552.000000, -720.000000, -469.500000, -26.301994,  88.834240, -15.680879,   0.710725,   0.652958,  -0.253949,   0.062863, 
15937,   4.086418,   9.013066,   0.307297,   0.429206,   0.850866, -41.004436,  -0.683024,  -0.698832,  -1.045300, -549.000000, -718.500000, -468.000000, -25.859494,  88.827992, -15.677247,   0.711015,   0.653897,  -0.251352,   0.060178, 
15938,   4.060982,   9.041023,   0.264045,   0.425456,   0.844103, -38.837572,  -0.683774,  -0.713316,  -1.065760, -549.000000, -724.500000, -474.000000, -25.426510,  88.819344, -15.672380,   0.711313,   0.654802,  -0.248805,   0.057554, 
15939,   4.060874,   9.035081,   0.281745,   0.387658,   0.836486, -36.853848,  -0.679396,  -0.727348,  -1.059066, -546.000000, -729.000000, -471.000000, -25.042538,  88.815616, -15.669853,   0.711535,   0.655607,  -0.246547,   0.055224, 
15940,   4.098409,   9.092286,   0.262588,   0.359153,   0.744177, -35.776640,  -0.678679,  -0.718477,  -1.057911, -546.000000, -726.000000, -471.000000, -24.665084,  88.810024, -15.666937,   0.711756,   0.656378,  -0.244322,   0.052931, 
15941,   4.134793,   9.061995,   0.266380,   0.308260,   0.815685, -35.732412,  -0.679567,  -0.728163,  -1.054528, -546.000000, -729.000000, -469.500000, -24.311396,  88.803432, -15.663617,   0.711970,   0.657094,  -0.242235,   0.050783, 
15942,   4.051971,   9.116778,   0.221537,   0.411471,   0.778274, -36.045248,  -0.672119,  -0.740929,  -1.052695, -541.500000, -733.500000, -468.000000, -23.955642,  88.803032, -15.662666,   0.712151,   0.657848,  -0.240146,   0.048621, 
15943,   3.876897,   9.462865,   0.359026,   0.432564,   0.770780, -36.148612,  -0.663271,  -0.741567,  -1.067857, -537.000000, -735.000000, -472.500000, -23.577146,  88.792504, -15.658056,   0.712376,   0.658571,  -0.237898,   0.046321, 
15944,   3.909950,   9.163350,   0.273625,   0.402589,   0.733369, -36.133172,  -0.665264,  -0.729526,  -1.061263, -538.500000, -730.500000, -471.000000, -23.214844,  88.786792, -15.655001,   0.712562,   0.659284,  -0.235751,   0.044120, 
15945,   3.785098,   8.992344,   0.208512,   0.332517,   0.838715, -35.274348,  -0.665060,  -0.723099,  -1.046496, -538.500000, -727.500000, -466.500000, -22.853446,  88.785072, -15.653724,   0.712726,   0.660016,  -0.233618,   0.041922, 
15946,   3.657104,   9.166757,   0.264661,   0.407504,   0.772174, -33.747816,  -0.650945,  -0.728083,  -1.058346, -531.000000, -730.500000, -469.500000, -22.488178,  88.779408, -15.650780,   0.712914,   0.660734,  -0.231453,   0.039702, 
15947,   3.669607,   9.003864,   0.197692,   0.279854,   0.713328, -31.966168,  -0.649498,  -0.748181,  -1.070632, -529.500000, -738.000000, -472.500000, -22.150960,  88.778936, -15.650122,   0.713035,   0.661400,  -0.229457,   0.037649, 
15948,   3.625032,   9.194132,   0.230801,   0.315676,   0.708247, -30.616910,  -0.661432,  -0.751615,  -1.060261, -535.500000, -738.000000, -469.500000, -21.827788,  88.777056, -15.649266,   0.713159,   0.662029,  -0.227543,   0.035679, 
15949,   3.622793,   9.529109,   0.316259,   0.269798,   0.728970, -30.449754,  -0.660869,  -0.740752,  -1.044916, -535.500000, -733.500000, -465.000000, -21.514640,  88.771544, -15.646862,   0.713301,   0.662618,  -0.225680,   0.033773, 
15950,   3.694290,   9.291286,   0.267974,   0.299528,   0.741788, -31.025530,  -0.657783,  -0.736680,  -1.040125, -534.000000, -732.000000, -463.500000, -21.218760,  88.768984, -15.645660,   0.713420,   0.663190,  -0.223926,   0.031971, 
15951,   3.766148,   9.093376,   0.153883,   0.303704,   0.751083, -32.305622,  -0.661057,  -0.744373,  -1.050031, -535.500000, -735.000000, -466.500000, -20.931372,  88.775728, -15.647980,   0.713470,   0.663784,  -0.222235,   0.030217, 
15952,   3.663513,   9.330491,   0.225869,   0.338351,   0.700406, -33.897804,  -0.652909,  -0.751076,  -1.056696, -531.000000, -738.000000, -468.000000, -20.622572,  88.776616, -15.647988,   0.713550,   0.664378,  -0.220403,   0.028334, 
15953,   3.486017,   9.662023,   0.321625,   0.316534,   0.751330, -35.361172,  -0.648718,  -0.768729,  -1.055116, -528.000000, -744.000000, -466.500000, -20.279614,  88.772576, -15.646634,   0.713668,   0.665009,  -0.218361,   0.026242, 
15954,   3.473836,   9.413345,   0.255201,   0.386333,   0.813075, -36.210264,  -0.643093,  -0.768640,  -1.051227, -525.000000, -744.000000, -465.000000, -19.929036,  88.771960, -15.646404,   0.713768,   0.665674,  -0.216279,   0.024103, 
15955,   3.477609,   9.153324,   0.181674,   0.312668,   0.829356, -37.123624,  -0.625688,  -0.763125,  -1.043518, -516.000000, -742.500000, -462.000000, -19.585870,  88.777368, -15.647947,   0.713824,   0.666351,  -0.214249,   0.022009, 
