Standard output of YIS Manager:
  TID,     AccX,     AccY,     AccZ,    AngVX,    AngVY,    AngVZ,     MagX,     MagY,     MagZ, NormMagX, NormMagY, NormMagZ,    Pitch,     Roll,      Yaw,       q0,       q1,       q2,       q3, 
16766,   0.001985,  -9.768312,  -0.179156,  -0.102026,   0.179202,  -0.144497,  -0.007667,   1.087475,  -0.828199, -270.000000, -139.500000, -450.000000,  -0.078744, -91.077248, 179.682528,   0.002430,  -0.001496,  -0.713699,   0.700402, 
16767,   0.005184,  -9.738167,  -0.189734,  -0.162161,   0.197750,  -0.022989,  -0.009272,   1.068919,  -0.825971, -270.000000, -145.500000, -448.500000,  -0.076808, -91.078056, 179.700304,   0.002310,  -0.001397,  -0.713704,   0.700398, 
16768,  -0.019122,  -9.794226,  -0.179331,  -0.110030,   0.232422,  -0.178451,  -0.010315,   1.061225,  -0.808399, -270.000000, -147.000000, -442.500000,  -0.074078, -91.078312, 179.720224,   0.002171,  -0.001289,  -0.713707,   0.700397, 
16769,  -0.052036,  -9.765772,  -0.156540,  -0.111189,   0.171831,   0.151170,  -0.005795,   1.083040,  -0.801298, -268.500000, -139.500000, -441.000000,  -0.064406, -91.076768, 179.739584,   0.001993,  -0.001228,  -0.713698,   0.700408, 
16770,   0.042593,  -9.803914,  -0.188320,  -0.146695,   0.120480,   0.532796,  -0.007976,   1.091459,  -0.799819, -270.000000, -136.500000, -441.000000,  -0.061810, -91.077752, 179.753024,   0.001894,  -0.001160,  -0.713705,   0.700403, 
16771,   0.022395,  -9.736537,  -0.149474,  -0.240996,   0.111043,   0.383640,  -0.019568,   1.089653,  -0.798523, -276.000000, -136.500000, -441.000000,  -0.061510, -91.076576, 179.775184,   0.001757,  -0.001024,  -0.713698,   0.700411, 
16772,  -0.002752,  -9.772984,  -0.197489,  -0.127836,   0.234409,   0.204316,  -0.015969,   1.096169,  -0.807345, -274.500000, -135.000000, -444.000000,  -0.056231, -91.077496, 179.805632,   0.001538,  -0.000867,  -0.713705,   0.700407, 
16773,  -0.026565,  -9.733315,  -0.187017,  -0.076345,   0.216058,   0.117528,  -0.008147,   1.090645,  -0.795282, -270.000000, -136.500000, -439.500000,  -0.051375, -91.078808, 179.826640,   0.001379,  -0.000765,  -0.713714,   0.700400, 
16774,   0.023557,  -9.807316,  -0.224464,  -0.076712,   0.171356,   0.073215,  -0.006512,   1.074169,  -0.802453, -268.500000, -142.500000, -441.000000,  -0.047710, -91.081112, 179.840656,   0.001271,  -0.000701,  -0.713729,   0.700386, 
16775,  -0.012392,  -9.746433,  -0.154461,  -0.136927,   0.135153,  -0.076041,  -0.007992,   1.088653,  -0.809471, -270.000000, -138.000000, -444.000000,  -0.049677, -91.080264, 179.852064,   0.001213,  -0.000617,  -0.713724,   0.700392, 
16776,   0.010832,  -9.810861,  -0.196824,   0.001239,   0.214955,  -0.064398,  -0.015969,   1.096169,  -0.807345, -274.500000, -135.000000, -444.000000,  -0.048249, -91.079528, 179.872624,   0.001079,  -0.000498,  -0.713720,   0.700397, 
16777,   0.051715,  -9.780310,  -0.190596,  -0.205157,   0.179700,  -0.093407,  -0.014164,   1.080508,  -0.819054, -273.000000, -141.000000, -447.000000,  -0.055406, -91.082128, 179.892912,   0.000999,  -0.000328,  -0.713737,   0.700382, 
16778,  -0.042893,  -9.749822,  -0.172986,  -0.066790,   0.249719,  -0.255994,  -0.000545,   1.075886,  -0.807639, -265.500000, -142.500000, -442.500000,  -0.051444, -91.081512, 179.906880,   0.000889,  -0.000265,  -0.713734,   0.700386, 
16779,   0.045799,  -9.784381,  -0.213070,  -0.084093,   0.250157,  -0.177850,   0.002914,   1.087201,  -0.792618, -264.000000, -138.000000, -438.000000,  -0.053811, -91.082936, 179.904608,   0.000918,  -0.000265,  -0.713742,   0.700377, 
16780,  -0.001470,  -9.755267,  -0.195697,  -0.153929,   0.134660,  -0.180672,  -0.010703,   1.091822,  -0.804033, -271.500000, -136.500000, -442.500000,  -0.054778, -91.085224, 179.910992,   0.000885,  -0.000219,  -0.713756,   0.700363, 
16781,   0.008489,  -9.784295,  -0.177938,  -0.051526,   0.081405,  -0.110867,  -0.007976,   1.091459,  -0.799819, -270.000000, -136.500000, -441.000000,  -0.054567, -91.085080, 179.925856,   0.000793,  -0.000128,  -0.713756,   0.700365, 
16782,   0.024865,  -9.742414,  -0.173066,   0.027127,   0.205336,  -0.194828,  -0.009222,   1.077338,  -0.797014, -270.000000, -141.000000, -439.500000,  -0.057433, -91.084040, 179.937920,   0.000737,  -0.000035,  -0.713750,   0.700372, 
16783,  -0.019266,  -9.825537,  -0.183484,   0.026323,   0.116152,  -0.239936,  -0.014318,   1.082500,  -0.804864, -273.000000, -139.500000, -442.500000,  -0.057493, -91.084152, 179.955568,   0.000629,   0.000074,  -0.713751,   0.700372, 
16784,   0.046467,  -9.727160,  -0.161091,  -0.101969,   0.179025,  -0.179311,  -0.007121,   1.095532,  -0.822507, -270.000000, -136.500000, -448.500000,  -0.059833, -91.081992, 179.970096,   0.000555,   0.000179,  -0.713738,   0.700385, 
16785,  -0.005768,  -9.761778,  -0.179799,  -0.024821,   0.142602,  -0.309653,  -0.013634,   1.085758,  -0.823014, -273.000000, -139.500000, -448.500000,  -0.063660, -91.080672, 179.983616,   0.000496,   0.000286,  -0.713731,   0.700394, 
16786,   0.004584,  -9.778606,  -0.191799,  -0.023868,   0.163993,  -0.184520,  -0.017232,   1.079242,  -0.814192, -274.500000, -141.000000, -445.500000,  -0.063103, -91.079528, -179.993888,  -0.000355,  -0.000423,   0.713724,  -0.700402, 
16787,   0.032621,  -9.766636,  -0.193680,  -0.119143,   0.179064,  -0.179500,  -0.005999,   1.076612,  -0.816066, -268.500000, -142.500000, -445.500000,  -0.069547, -91.081584, -179.981168,  -0.000318,  -0.000542,   0.713736,  -0.700388, 
16788,  -0.063097,  -9.725408,  -0.122497,  -0.100040,   0.188124,  -0.138515,   0.000326,   1.082765,  -0.820674, -265.500000, -141.000000, -447.000000,  -0.060783, -91.078808, -179.975088,  -0.000226,  -0.000526,   0.713719,  -0.700405, 
16789,   0.036092,  -9.807385,  -0.213158,   0.009751,   0.196833,  -0.125547,  -0.005299,   1.082677,  -0.824563, -268.500000, -141.000000, -448.500000,  -0.062894, -91.079784, -179.974944,  -0.000238,  -0.000540,   0.713725,  -0.700400, 
16790,  -0.011861,  -9.746540,  -0.169342,  -0.153626,   0.172428,  -0.139384,  -0.005982,   1.079419,  -0.806413, -268.500000, -141.000000, -442.500000,  -0.062038, -91.079072, -179.968160,  -0.000191,  -0.000577,   0.713720,  -0.700404, 
16791,   0.044030,  -9.741320,  -0.168791,  -0.033550,   0.152227,  -0.170331,   0.005438,   1.080410,  -0.803172, -262.500000, -141.000000, -441.000000,  -0.066364, -91.077040, -179.972272,  -0.000243,  -0.000578,   0.713708,  -0.700416, 
16792,  -0.009405,  -9.796953,  -0.181424,  -0.046843,   0.164281,  -0.138352,   0.009361,   1.085749,  -0.830721, -261.000000, -141.000000, -450.000000,  -0.065587, -91.075432, -179.984672,  -0.000314,  -0.000496,   0.713698,  -0.700427, 
16793,   0.024843,  -9.757753,  -0.186060,  -0.102552,   0.125825,  -0.145451,  -0.007512,   1.085483,  -0.842389, -270.000000, -141.000000, -454.500000,  -0.064886, -91.077648, -179.987872,  -0.000329,  -0.000472,   0.713712,  -0.700413, 
16794,   0.002563,  -9.741862,  -0.173428,  -0.017153,   0.093475,  -0.054188,  -0.011470,   1.074532,  -0.834145, -271.500000, -144.000000, -451.500000,  -0.065401, -91.076448, -179.975472,  -0.000257,  -0.000552,   0.713704,  -0.700420, 
16795,  -0.003271,  -9.733444,  -0.169138,  -0.178903,   0.205622,  -0.231904,  -0.000220,   1.074709,  -0.826366, -265.500000, -144.000000, -448.500000,  -0.067603, -91.075904, -179.969856,  -0.000236,  -0.000601,   0.713701,  -0.700423, 
16796,   0.056750,  -9.793510,  -0.200338,  -0.108011,   0.148445,  -0.170251,   0.000121,   1.076338,  -0.835441, -265.500000, -144.000000, -451.500000,  -0.071187, -91.077320, -179.973632,  -0.000282,  -0.000599,   0.713709,  -0.700414, 
16797,  -0.020571,  -9.719189,  -0.170438,  -0.076703,   0.134663,  -0.145009,  -0.008384,   1.078604,  -0.829354, -270.000000, -142.500000, -450.000000,  -0.069101, -91.078752, -179.967920,  -0.000234,  -0.000622,   0.713718,  -0.700405, 
16798,   0.026464,  -9.780775,  -0.203178,   0.059745,   0.140436,  -0.114394,  -0.010361,   1.093451,  -0.813108, -271.500000, -136.500000, -445.500000,  -0.068830, -91.079064, -179.954896,  -0.000152,  -0.000701,   0.713719,  -0.700403, 
16799,  -0.008182,  -9.783593,  -0.201668,  -0.086033,   0.072808,  -0.067885,  -0.013414,   1.094992,  -0.798594, -273.000000, -135.000000, -441.000000,  -0.067494, -91.081936, -179.936992,  -0.000035,  -0.000805,   0.713736,  -0.700385, 
16800,  -0.004926,  -9.745516,  -0.170339,  -0.077774,   0.141138,  -0.038537,  -0.017558,   1.080419,  -0.795465, -274.500000, -139.500000, -439.500000,  -0.065789, -91.079360, -179.912976,   0.000122,  -0.000944,   0.713720,  -0.700400, 
16801,  -0.000518,  -9.788982,  -0.179188,  -0.144145,   0.250114,  -0.213325,  -0.011950,   1.077701,  -0.801228, -271.500000, -141.000000, -441.000000,  -0.064158, -91.078184, -179.898320,   0.000221,  -0.001025,   0.713712,  -0.700407, 
16802,   0.012509,  -9.767661,  -0.163929,  -0.100153,   0.196622,  -0.022326,  -0.009051,   1.078153,  -0.801552, -270.000000, -141.000000, -441.000000,  -0.063260, -91.076336, -179.888832,   0.000285,  -0.001079,   0.713700,  -0.700418, 
16803,   0.026545,  -9.777849,  -0.187831,  -0.120044,   0.117676,  -0.006542,  -0.014505,   1.078879,  -0.809978, -273.000000, -141.000000, -444.000000,  -0.065512, -91.077424, -179.872720,   0.000369,  -0.001193,   0.713706,  -0.700411, 
16804,   0.038709,  -9.745188,  -0.159522,  -0.168162,   0.259842,  -0.060631,  -0.011624,   1.076524,  -0.819955, -271.500000, -142.500000, -447.000000,  -0.065672, -91.076608, -179.860352,   0.000444,  -0.001271,   0.713700,  -0.700415, 
16805,   0.010904,  -9.795500,  -0.195042,  -0.007585,   0.169873,  -0.187137,  -0.002417,   1.080322,  -0.834540, -267.000000, -142.500000, -451.500000,  -0.064751, -91.076904, -179.861488,   0.000443,  -0.001258,   0.713703,  -0.700413, 
16806,   0.006314,  -9.753924,  -0.192818,  -0.145914,   0.188463,  -0.092598,  -0.002776,   1.075886,  -0.835117, -267.000000, -144.000000, -451.500000,  -0.064741, -91.079576, -179.861920,   0.000440,  -0.001255,   0.713719,  -0.700397, 
16807,  -0.007616,  -9.762972,  -0.169781,  -0.033357,   0.188299,  -0.073955,  -0.011453,   1.077338,  -0.824492, -271.500000, -142.500000, -448.500000,  -0.062851, -91.077968, -179.848592,   0.000533,  -0.001327,   0.713708,  -0.700406, 
16808,   0.036600,  -9.784480,  -0.210974,  -0.100284,   0.180728,  -0.038081,  -0.017078,   1.077250,  -0.828382, -274.500000, -142.500000, -450.000000,  -0.064941, -91.080976, -179.829728,   0.000636,  -0.001457,   0.713726,  -0.700387, 
16809,   0.021712,  -9.757798,  -0.155395,  -0.111192,   0.153507,   0.046409,  -0.014897,   1.068830,  -0.829861, -273.000000, -145.500000, -450.000000,  -0.066464, -91.079784, -179.813568,   0.000725,  -0.001567,   0.713718,  -0.700394, 
16810,   0.017300,  -9.789169,  -0.188564,  -0.069814,   0.189000,   0.047496,  -0.008368,   1.081411,  -0.819702, -270.000000, -141.000000, -447.000000,  -0.066568, -91.080792, -179.807424,   0.000762,  -0.001606,   0.713724,  -0.700387, 
16811,   0.010438,  -9.754167,  -0.176722,  -0.085228,   0.161992,  -0.022777,   0.003223,   1.083217,  -0.820998, -264.000000, -141.000000, -447.000000,  -0.068106, -91.080632, -179.819200,   0.000680,  -0.001542,   0.713723,  -0.700389, 
16812,   0.004901,  -9.768357,  -0.160839,  -0.144668,   0.215061,  -0.109518,   0.002865,   1.078781,  -0.821575, -264.000000, -142.500000, -447.000000,  -0.066057, -91.079480, -179.828640,   0.000636,  -0.001471,   0.713717,  -0.700396, 
16813,   0.003173,  -9.755939,  -0.162024,  -0.213512,   0.188172,  -0.180378,  -0.009256,   1.071725,  -0.816319, -270.000000, -144.000000, -445.500000,  -0.066186, -91.078720, -179.820864,   0.000682,  -0.001520,   0.713712,  -0.700401, 
16814,   0.009226,  -9.758296,  -0.178505,   0.000378,   0.135110,  -0.022311,  -0.002571,   1.082314,  -0.820350, -267.000000, -141.000000, -447.000000,  -0.065279, -91.076304, -179.822128,   0.000680,  -0.001506,   0.713697,  -0.700416, 
16815,   0.021784,  -9.777816,  -0.195539,  -0.059719,   0.116877,  -0.136435,   0.010111,   1.100233,  -0.810261, -261.000000, -135.000000, -444.000000,  -0.067670, -91.076920, -179.843952,   0.000532,  -0.001385,   0.713702,  -0.700413, 
16816,   0.005655,  -9.756500,  -0.182071,  -0.059676,   0.116744,  -0.162546,  -0.005437,   1.087475,  -0.800721, -268.500000, -138.000000, -441.000000,  -0.067238, -91.076424, -179.840384,   0.000557,  -0.001405,   0.713698,  -0.700416, 
16817,  -0.015052,  -9.781324,  -0.135619,   0.058577,  -0.033300,   0.123287,  -0.017387,   1.081234,  -0.800002, -274.500000, -139.500000, -441.000000,  -0.066794, -91.072976, -179.819152,   0.000689,  -0.001534,   0.713676,  -0.700436, 
16818,   0.030121,  -9.776103,  -0.181312,  -0.060851,   0.047035,   0.123399,  -0.005282,   1.085483,  -0.814911, -268.500000, -139.500000, -445.500000,  -0.068081, -91.072464, -179.817952,   0.000688,  -0.001549,   0.713673,  -0.700439, 
16819,   0.005954,  -9.822079,  -0.190966,   0.008659,   0.108535,   0.003416,  -0.004240,   1.093177,  -0.832483, -268.500000, -138.000000, -451.500000,  -0.065397, -91.072440, -179.816096,   0.000716,  -0.001545,   0.713673,  -0.700440, 
16820,   0.043634,  -9.732975,  -0.205378,  -0.196334,   0.215620,  -0.023048,  -0.002947,   1.075072,  -0.830580, -267.000000, -144.000000, -450.000000,  -0.064703, -91.075472, -179.817360,   0.000713,  -0.001533,   0.713692,  -0.700421, 
16821,  -0.013783,  -9.804295,  -0.178707,   0.034173,   0.090906,   0.046898,  -0.000920,   1.068644,  -0.817869, -265.500000, -145.500000, -445.500000,  -0.062334, -91.074776, -179.821056,   0.000705,  -0.001495,   0.713688,  -0.700425, 
16822,   0.015314,  -9.721722,  -0.157188,  -0.154817,   0.064066,  -0.068798,  -0.002400,   1.083128,  -0.824887, -267.000000, -141.000000, -448.500000,  -0.063358, -91.074672, -179.823952,   0.000681,  -0.001483,   0.713687,  -0.700426, 
16823,  -0.004906,  -9.804969,  -0.153855,   0.035615,   0.214789,  -0.081428,  -0.003493,   1.067015,  -0.836272, -267.000000, -147.000000, -451.500000,  -0.059249, -91.071424, -179.822736,   0.000714,  -0.001466,   0.713667,  -0.700446, 
16824,   0.015846,  -9.748876,  -0.173728,  -0.206384,   0.055152,  -0.095633,  -0.006733,   1.064935,  -0.826873, -268.500000, -147.000000, -448.500000,  -0.060600, -91.073552, -179.818896,   0.000729,  -0.001498,   0.713680,  -0.700433, 
16825,   0.010868,  -9.781364,  -0.170246,   0.043689,   0.152186,  -0.143372,  -0.005982,   1.079419,  -0.806413, -268.500000, -141.000000, -442.500000,  -0.058722, -91.070984, -179.814512,   0.000768,  -0.001514,   0.713664,  -0.700449, 
16826,   0.014635,  -9.770693,  -0.196768,  -0.067954,   0.161643,  -0.083513,  -0.008880,   1.078967,  -0.806089, -270.000000, -141.000000, -442.500000,  -0.058787, -91.072544, -179.806928,   0.000813,  -0.001561,   0.713674,  -0.700439, 
16827,   0.014408,  -9.782581,  -0.159007,  -0.050020,   0.241759,  -0.064486,  -0.005657,   1.078241,  -0.825140, -268.500000, -142.500000, -448.500000,  -0.058028, -91.070248, -179.804208,   0.000835,  -0.001574,   0.713659,  -0.700453, 
16828,   0.006261,  -9.767115,  -0.196238,  -0.076892,   0.126077,  -0.084244,  -0.002605,   1.076701,  -0.839655, -267.000000, -144.000000, -453.000000,  -0.056562, -91.072144, -179.805680,   0.000835,  -0.001556,   0.713671,  -0.700441, 
16829,   0.004374,  -9.762427,  -0.170281,  -0.024727,   0.188147,  -0.099972,  -0.005332,   1.077064,  -0.843868, -268.500000, -144.000000, -454.500000,  -0.056132, -91.071040, -179.803248,   0.000853,  -0.001568,   0.713664,  -0.700448, 
16830,   0.001895,  -9.790165,  -0.184483,  -0.102141,   0.179557,  -0.074869,  -0.008197,   1.082225,  -0.824239, -270.000000, -141.000000, -448.500000,  -0.053181, -91.071280, -179.796048,   0.000915,  -0.001595,   0.713666,  -0.700446, 
16831,   0.026039,  -9.751274,  -0.177784,  -0.128399,   0.126149,  -0.093513,  -0.010924,   1.082588,  -0.828453, -271.500000, -141.000000, -450.000000,  -0.054257, -91.070600, -179.786304,   0.000968,  -0.001662,   0.713661,  -0.700450, 
16832,   0.004891,  -9.798432,  -0.193909,  -0.024770,   0.188279,  -0.073861,  -0.003305,   1.070636,  -0.831157, -267.000000, -145.500000, -450.000000,  -0.051608, -91.071264, -179.786496,   0.000983,  -0.001645,   0.713665,  -0.700446, 
16833,   0.039719,  -9.776728,  -0.184192,  -0.093246,   0.215255,  -0.048027,   0.001414,   1.058233,  -0.833538, -264.000000, -150.000000, -450.000000,  -0.054557, -91.072840, -179.796048,   0.000906,  -0.001603,   0.713675,  -0.700437, 
16834,  -0.018470,  -9.775928,  -0.169871,  -0.110318,   0.224146,  -0.056760,  -0.004381,   1.057330,  -0.832890, -267.000000, -150.000000, -450.000000,  -0.051333, -91.073536, -179.794400,   0.000937,  -0.001594,   0.713680,  -0.700432, 
16835,   0.011767,  -9.749400,  -0.200906,  -0.024741,   0.188191,  -0.091268,  -0.000920,   1.068644,  -0.817869, -265.500000, -145.500000, -445.500000,  -0.050838, -91.074912, -179.799136,   0.000911,  -0.001561,   0.713688,  -0.700424, 
16836,  -0.006334,  -9.768248,  -0.195152,  -0.033854,   0.134833,  -0.092317,  -0.003460,   1.072628,  -0.816967, -267.000000, -144.000000, -445.500000,  -0.051389, -91.075296, -179.800016,   0.000902,  -0.001559,   0.713691,  -0.700422, 
16837,   0.027106,  -9.773740,  -0.174251,  -0.119476,   0.161759,  -0.084079,  -0.008555,   1.077790,  -0.824816, -270.000000, -142.500000, -448.500000,  -0.052693, -91.075312, -179.793536,   0.000933,  -0.001608,   0.713690,  -0.700421, 
16838,   0.010963,  -9.772478,  -0.181452,  -0.042633,   0.107942,  -0.136406,  -0.002930,   1.077878,  -0.820927, -267.000000, -142.500000, -447.000000,  -0.053622, -91.076008, -179.795184,   0.000918,  -0.001603,   0.713695,  -0.700417, 
16839,   0.012204,  -9.770698,  -0.189114,  -0.067938,   0.170761,  -0.039836,  -0.002897,   1.083491,  -0.801622, -267.000000, -139.500000, -441.000000,  -0.054389, -91.076720, -179.796896,   0.000902,  -0.001597,   0.713699,  -0.700413, 
16840,   0.012806,  -9.750651,  -0.166079,  -0.110554,   0.188207,  -0.127025,  -0.006529,   1.071362,  -0.812106, -268.500000, -144.000000, -444.000000,  -0.055710, -91.076992, -179.793744,   0.000913,  -0.001625,   0.713701,  -0.700411, 
16841,  -0.003405,  -9.769664,  -0.181361,   0.014467,   0.195971,  -0.098434,  -0.011045,   1.090193,  -0.794958, -271.500000, -136.500000, -439.500000,  -0.055188, -91.075504, -179.783776,   0.000978,  -0.001684,   0.713691,  -0.700420, 
16842,   0.009071,  -9.780767,  -0.169669,  -0.119868,   0.135468,  -0.006223,  -0.005249,   1.091096,  -0.795606, -268.500000, -136.500000, -439.500000,  -0.054172, -91.076672, -179.777504,   0.001022,  -0.001716,   0.713698,  -0.700412, 
16843,   0.004505,  -9.761868,  -0.154018,  -0.092784,   0.148529,  -0.146874,  -0.005828,   1.077427,  -0.820603, -268.500000, -142.500000, -447.000000,  -0.052878, -91.074344, -179.775024,   0.001046,  -0.001724,   0.713684,  -0.700427, 
16844,   0.019409,  -9.760698,  -0.180201,  -0.033767,   0.143729,  -0.092158,  -0.014164,   1.080508,  -0.819054, -273.000000, -141.000000, -447.000000,  -0.053033, -91.074192, -179.766368,   0.001097,  -0.001779,   0.713682,  -0.700427, 
16845,   0.020939,  -9.792367,  -0.171752,   0.006874,   0.204015,  -0.075167,  -0.010703,   1.091822,  -0.804033, -271.500000, -136.500000, -442.500000,  -0.053658, -91.072808, -179.754928,   0.001164,  -0.001854,   0.713673,  -0.700436, 
16846,   0.004028,  -9.729299,  -0.189147,  -0.025441,   0.126183,  -0.040160,  -0.004736,   1.093540,  -0.809218, -268.500000, -136.500000, -444.000000,  -0.054085, -91.073088, -179.750016,   0.001191,  -0.001887,   0.713675,  -0.700434, 
16847,  -0.001734,  -9.747626,  -0.171891,  -0.130766,   0.172495,  -0.115923,  -0.001683,   1.091999,  -0.823732, -267.000000, -138.000000, -448.500000,  -0.053283, -91.072056, -179.751680,   0.001185,  -0.001872,   0.713668,  -0.700440, 
16848,  -0.010761,  -9.790734,  -0.168643,  -0.015802,   0.232919,  -0.038157,  -0.008197,   1.082225,  -0.824239, -270.000000, -141.000000, -448.500000,  -0.050095, -91.071064, -179.750288,   0.001214,  -0.001861,   0.713663,  -0.700446, 
16849,   0.020539,  -9.764530,  -0.169113,  -0.115875,   0.141027,  -0.077638,  -0.007309,   1.091911,  -0.827622, -270.000000, -138.000000, -450.000000,  -0.052426, -91.070368, -179.747056,   0.001219,  -0.001895,   0.713658,  -0.700450, 
16850,   0.010984,  -9.759499,  -0.170820,  -0.051220,   0.107961,  -0.136500,   0.004624,   1.095346,  -0.837993, -264.000000, -138.000000, -453.000000,  -0.053111, -91.068672, -179.752320,   0.001183,  -0.001867,   0.713648,  -0.700461, 
16851,   0.004539,  -9.777053,  -0.179733,  -0.099897,   0.203979,  -0.130496,   0.000838,   1.085209,  -0.834286, -265.500000, -141.000000, -451.500000,  -0.053987, -91.068672, -179.763664,   0.001108,  -0.001801,   0.713648,  -0.700462, 
16852,   0.021660,  -9.781406,  -0.171346,  -0.102288,   0.161676,  -0.092594,  -0.003101,   1.077064,  -0.816390, -267.000000, -142.500000, -445.500000,  -0.055789, -91.068824, -179.769312,   0.001062,  -0.001777,   0.713649,  -0.700461, 
16853,   0.035573,  -9.747769,  -0.176334,  -0.069780,   0.164450,  -0.115394,  -0.002384,   1.085935,  -0.815235, -267.000000, -139.500000, -445.500000,  -0.058559, -91.068688, -179.772896,   0.001023,  -0.001772,   0.713648,  -0.700462, 
16854,   0.006641,  -9.789616,  -0.172644,  -0.085289,   0.143845,  -0.092723,  -0.001700,   1.089193,  -0.833385, -267.000000, -139.500000, -451.500000,  -0.057691, -91.068576, -179.776112,   0.001009,  -0.001747,   0.713648,  -0.700462, 
16855,   0.004000,  -9.768143,  -0.167665,  -0.053968,   0.227914,  -0.067677,  -0.004957,   1.084306,  -0.833638, -268.500000, -141.000000, -451.500000,  -0.056989, -91.068696, -179.777376,   0.001006,  -0.001734,   0.713649,  -0.700462, 
16856,  -0.005270,  -9.755927,  -0.149693,  -0.093774,   0.152716,  -0.101362,   0.000667,   1.084394,  -0.829749, -265.500000, -141.000000, -450.000000,  -0.056912, -91.065832, -179.780688,   0.000986,  -0.001713,   0.713632,  -0.700480, 
16857,   0.012037,  -9.769728,  -0.180196,  -0.069690,   0.172319,  -0.122989,   0.005780,   1.082039,  -0.812246, -262.500000, -141.000000, -444.000000,  -0.057862, -91.065056, -179.792608,   0.000907,  -0.001645,   0.713627,  -0.700485, 
16858,  -0.001701,  -9.768924,  -0.159118,  -0.084746,   0.215502,   0.004287,  -0.006154,   1.078604,  -0.801876, -268.500000, -141.000000, -441.000000,  -0.057221, -91.064688, -179.798640,   0.000874,  -0.001603,   0.713625,  -0.700487, 
16859,   0.009479,  -9.741371,  -0.170754,  -0.130531,   0.204362,  -0.068939,  -0.019739,   1.088839,  -0.793985, -276.000000, -136.500000, -439.500000,  -0.057919, -91.064320, -179.786288,   0.000945,  -0.001685,   0.713622,  -0.700489, 
16860,   0.019975,  -9.763071,  -0.175477,   0.035322,   0.179027,  -0.116878,  -0.018680,   1.099339,  -0.801906, -276.000000, -133.500000, -442.500000,  -0.058772, -91.063680, -179.764192,   0.001075,  -0.001827,   0.713618,  -0.700492, 
16861,   0.032820,  -9.761948,  -0.172692,  -0.100427,   0.164873,  -0.046101,  -0.017028,   1.085669,  -0.799425, -274.500000, -138.000000, -441.000000,  -0.060399, -91.061576, -179.745216,   0.001181,  -0.001955,   0.713604,  -0.700505, 
16862,   0.018738,  -9.768979,  -0.173720,  -0.084484,   0.233029,  -0.047615,  -0.021344,   1.070282,  -0.791758, -276.000000, -142.500000, -438.000000,  -0.062191, -91.061344, -179.724912,   0.001294,  -0.002093,   0.713601,  -0.700505, 
16863,   0.001946,  -9.772820,  -0.190766,  -0.046491,   0.212082,  -0.067875,  -0.015052,   1.070822,  -0.815671, -273.000000, -144.000000, -445.500000,  -0.060223, -91.062120, -179.705168,   0.001427,  -0.002204,   0.713605,  -0.700500, 
16864,   0.018796,  -9.784286,  -0.205008,  -0.024682,   0.197176,  -0.073702,  -0.002759,   1.078693,  -0.825464, -267.000000, -142.500000, -448.500000,  -0.060208, -91.063560, -179.700112,   0.001458,  -0.002235,   0.713614,  -0.700491, 
16865,   0.012572,  -9.766585,  -0.177043,  -0.108410,   0.133377,  -0.023540,  -0.004957,   1.084306,  -0.833638, -268.500000, -141.000000, -451.500000,  -0.061661, -91.064344, -179.703024,   0.001431,  -0.002226,   0.713619,  -0.700486, 
16866,   0.018789,  -9.753628,  -0.167217,  -0.015966,   0.196758,  -0.151940,  -0.010924,   1.082588,  -0.828453, -271.500000, -141.000000, -450.000000,  -0.060611, -91.063168, -179.699344,   0.001460,  -0.002242,   0.713612,  -0.700493, 
16867,   0.017859,  -9.779202,  -0.182782,  -0.062122,   0.164354,  -0.130783,  -0.005315,   1.079870,  -0.834216, -268.500000, -142.500000, -451.500000,  -0.061670, -91.063072, -179.695856,   0.001475,  -0.002271,   0.713611,  -0.700494, 
16868,  -0.002823,  -9.774784,  -0.183327,  -0.067516,   0.206124,  -0.082718,  -0.008230,   1.076612,  -0.843544, -270.000000, -144.000000, -454.500000,  -0.060764, -91.063240, -179.693792,   0.001493,  -0.002278,   0.713612,  -0.700493, 
16869,   0.009744,  -9.753026,  -0.153710,  -0.033080,   0.214943,  -0.082182,  -0.005503,   1.076249,  -0.839331, -268.500000, -144.000000, -453.000000,  -0.059792, -91.061072, -179.692016,   0.001510,  -0.002283,   0.713598,  -0.700506, 
16870,   0.018054,  -9.801443,  -0.192632,  -0.153166,   0.233138,  -0.057073,  -0.003647,   1.069007,  -0.822082, -267.000000, -145.500000, -447.000000,  -0.060293, -91.061224, -179.693632,   0.001497,  -0.002276,   0.713599,  -0.700505, 
16871,   0.013466,  -9.765959,  -0.197954,  -0.085262,   0.134594,  -0.162511,  -0.012341,   1.067653,  -0.821110, -271.500000, -145.500000, -447.000000,  -0.062921, -91.061976, -179.691280,   0.001495,  -0.002307,   0.713604,  -0.700500, 
16872,  -0.010608,  -9.757059,  -0.163898,  -0.041493,   0.223593,  -0.134339,  -0.011779,   1.078516,  -0.805765, -271.500000, -141.000000, -442.500000,  -0.060287, -91.061248, -179.680384,   0.001578,  -0.002358,   0.713599,  -0.700504, 
16873,   0.021144,  -9.761320,  -0.166615,   0.009343,   0.161425,  -0.091368,  -0.011233,   1.086572,  -0.800073, -271.500000, -138.000000, -441.000000,  -0.061741, -91.059488, -179.672432,   0.001618,  -0.002417,   0.713588,  -0.700515, 
16874,  -0.008373,  -9.806077,  -0.184570,  -0.103309,   0.063994,  -0.059529,  -0.014522,   1.076072,  -0.819631, -273.000000, -142.500000, -447.000000,  -0.061132, -91.060128, -179.661568,   0.001688,  -0.002481,   0.713591,  -0.700511, 
16875,   0.011691,  -9.719950,  -0.148952,  -0.085638,   0.117422,  -0.040979,  -0.017779,   1.071185,  -0.819885, -274.500000, -144.000000, -447.000000,  -0.060366, -91.057840, -179.646112,   0.001787,  -0.002572,   0.713577,  -0.700524, 
16876,   0.022382,  -9.796099,  -0.216793,  -0.015775,   0.223668,  -0.107945,  -0.009085,   1.072540,  -0.820857, -270.000000, -144.000000, -447.000000,  -0.061540, -91.058368, -179.636144,   0.001841,  -0.002642,   0.713580,  -0.700521, 
16877,   0.006795,  -9.767735,  -0.182070,  -0.067296,   0.232946,  -0.056130,  -0.011828,   1.070096,  -0.834723, -271.500000, -145.500000, -451.500000,  -0.060987, -91.058800, -179.630624,   0.001878,  -0.002673,   0.713582,  -0.700518, 
16878,  -0.011017,  -9.749312,  -0.198125,  -0.051264,   0.098932,  -0.162770,  -0.011828,   1.070096,  -0.834723, -271.500000, -145.500000, -451.500000,  -0.059214, -91.060888, -179.622464,   0.001939,  -0.002713,   0.713594,  -0.700505, 
16879,   0.025350,  -9.753669,  -0.160086,   0.001049,   0.197206,  -0.056012,  -0.000578,   1.070273,  -0.826944, -265.500000, -145.500000, -448.500000,  -0.061108, -91.059728, -179.623616,   0.001920,  -0.002717,   0.713587,  -0.700512, 
16880,   0.007307,  -9.800203,  -0.200384,  -0.076614,   0.152722,  -0.092470,  -0.003289,   1.073443,  -0.821505, -267.000000, -144.000000, -447.000000,  -0.062313, -91.060080, -179.631360,   0.001865,  -0.002676,   0.713590,  -0.700510, 
16881,   0.010841,  -9.759559,  -0.138362,  -0.135950,   0.223805,  -0.135375,  -0.002213,   1.086749,  -0.819772, -267.000000, -139.500000, -447.000000,  -0.063561, -91.058544, -179.637824,   0.001818,  -0.002644,   0.713580,  -0.700520, 
16882,   0.014112,  -9.756507,  -0.197352,   0.026633,   0.170194,  -0.108428,   0.001401,   1.096072,  -0.818941, -265.500000, -136.500000, -447.000000,  -0.064906, -91.057936, -179.647728,   0.001749,  -0.002590,   0.713577,  -0.700524, 
16883,   0.009761,  -9.803727,  -0.217482,  -0.102259,   0.161587,  -0.110001,  -0.011249,   1.083766,  -0.809725, -271.500000, -139.500000, -444.000000,  -0.064270, -91.061904, -179.649360,   0.001743,  -0.002576,   0.713602,  -0.700499, 
16884,   0.021288,  -9.735905,  -0.169547,  -0.042408,   0.162250,   0.047322,  -0.014676,   1.078064,  -0.805441, -273.000000, -141.000000, -442.500000,  -0.064413, -91.061752, -179.637824,   0.001813,  -0.002649,   0.713600,  -0.700500, 
16885,   0.007999,  -9.757712,  -0.171431,  -0.059762,   0.117010,  -0.110325,  -0.005811,   1.080233,  -0.810951, -268.500000, -141.000000, -444.000000,  -0.064724, -91.060920, -179.638832,   0.001804,  -0.002644,   0.713595,  -0.700505, 
16886,   0.015689,  -9.806727,  -0.206227,  -0.128355,   0.135178,  -0.067243,  -0.004940,   1.087112,  -0.823985, -268.500000, -139.500000, -448.500000,  -0.063318, -91.062888, -179.640544,   0.001803,  -0.002625,   0.713607,  -0.700493, 
16887,   0.009886,  -9.752376,  -0.185578,  -0.084823,   0.179075,  -0.161716,  -0.008009,   1.085846,  -0.819124, -270.000000, -139.500000, -447.000000,  -0.063960, -91.065512, -179.638832,   0.001809,  -0.002640,   0.713623,  -0.700477, 
16888,   0.010381,  -9.756548,  -0.166692,  -0.017045,   0.099254,  -0.084061,  -0.005641,   1.081048,  -0.815488, -268.500000, -141.000000, -445.500000,  -0.063694, -91.064176, -179.639472,   0.001807,  -0.002634,   0.713615,  -0.700485, 
16889,   0.029511,  -9.793205,  -0.199033,  -0.042266,   0.152645,  -0.092093,   0.000513,   1.086386,  -0.815559, -265.500000, -139.500000, -445.500000,  -0.066866, -91.065200, -179.651168,   0.001716,  -0.002581,   0.713622,  -0.700479, 
16890,  -0.011098,  -9.759961,  -0.192231,  -0.137160,   0.117537,  -0.041544,  -0.005657,   1.078241,  -0.825140, -268.500000, -142.500000, -448.500000,  -0.066371, -91.067320, -179.651952,   0.001714,  -0.002573,   0.713635,  -0.700466, 
16891,  -0.011105,  -9.719869,  -0.143220,  -0.033518,   0.170462,  -0.082977,  -0.011486,   1.071725,  -0.843798, -271.500000, -145.500000, -454.500000,  -0.062293, -91.063104, -179.642688,   0.001796,  -0.002606,   0.713609,  -0.700492, 
16892,  -0.010829,  -9.818476,  -0.185777,  -0.058404,   0.250320,  -0.134050,  -0.009305,   1.063306,  -0.845277, -270.000000, -148.500000, -454.500000,  -0.060322, -91.062744, -179.637728,   0.001838,  -0.002624,   0.713606,  -0.700494, 
16893,   0.002721,  -9.739364,  -0.176180,  -0.102375,   0.152780,  -0.092753,   0.002131,   1.067104,  -0.832383, -264.000000, -147.000000, -450.000000,  -0.061212, -91.063104, -179.650976,   0.001752,  -0.002547,   0.713609,  -0.700492, 
16894,   0.000946,  -9.740527,  -0.182685,  -0.042762,   0.108340,  -0.058074,  -0.009272,   1.068919,  -0.825971, -270.000000, -145.500000, -448.500000,  -0.059506, -91.063280, -179.645696,   0.001795,  -0.002570,   0.713610,  -0.700491, 
16895,   0.015829,  -9.773058,  -0.198531,  -0.050896,   0.152797,  -0.066076,  -0.019180,   1.059056,  -0.802890, -274.500000, -147.000000, -441.000000,  -0.059940, -91.063160, -179.626320,   0.001911,  -0.002693,   0.713608,  -0.700491, 
16896,   0.021142,  -9.779599,  -0.187873,   0.017420,   0.117146,  -0.048551,  -0.017762,   1.073992,  -0.810232, -274.500000, -142.500000, -444.000000,  -0.063898, -91.064040, -179.611520,   0.001976,  -0.002809,   0.713613,  -0.700485, 
16897,  -0.008098,  -9.729310,  -0.156778,  -0.085933,   0.072498,  -0.128810,  -0.020147,   1.075984,  -0.823521, -276.000000, -142.500000, -448.500000,  -0.061741, -91.062680, -179.590704,   0.002117,  -0.002926,   0.713604,  -0.700492, 
16898,   0.009320,  -9.785987,  -0.187047,   0.074492,   0.093112,  -0.084128,  -0.014710,   1.072451,  -0.824746, -273.000000, -144.000000, -448.500000,  -0.060947, -91.061624, -179.578576,   0.002196,  -0.002996,   0.713597,  -0.700499, 
16899,   0.001401,  -9.775378,  -0.190968,  -0.154189,   0.126295,  -0.076388,  -0.007683,   1.084669,  -0.837852, -270.000000, -141.000000, -453.000000,  -0.059053, -91.064872, -179.577664,   0.002214,  -0.002991,   0.713617,  -0.700479, 
16900,   0.015910,  -9.715177,  -0.148655,  -0.031551,   0.172312,  -0.107097,  -0.000658,   1.096886,  -0.850957, -267.000000, -138.000000, -457.500000,  -0.059477, -91.061400, -179.587856,   0.002149,  -0.002930,   0.713596,  -0.700500, 
16901,   0.016516,  -9.757103,  -0.199695,  -0.015949,   0.215038,  -0.055883,  -0.008555,   1.077790,  -0.824816, -270.000000, -142.500000, -448.500000,  -0.060819, -91.062152, -179.586256,   0.002150,  -0.002948,   0.713601,  -0.700496, 
16902,   0.030484,  -9.809196,  -0.181660,  -0.016635,   0.140764,  -0.084286,  -0.015940,   1.061137,  -0.812289, -273.000000, -147.000000, -444.000000,  -0.063238, -91.062296, -179.574368,   0.002208,  -0.003037,   0.713601,  -0.700494, 
16903,   0.018818,  -9.727082,  -0.142412,  -0.059513,   0.143743,  -0.101144,  -0.015581,   1.065572,  -0.811711, -273.000000, -145.500000, -444.000000,  -0.064510, -91.059096, -179.562336,   0.002273,  -0.003119,   0.713581,  -0.700514, 
16904,   0.020587,  -9.773420,  -0.190627,  -0.107595,   0.196049,  -0.138457,  -0.009272,   1.068919,  -0.825971, -270.000000, -145.500000, -448.500000,  -0.065461, -91.058416, -179.560112,   0.002281,  -0.003139,   0.713576,  -0.700518, 
16905,   0.020498,  -9.804383,  -0.206780,  -0.059585,   0.143964,  -0.057626,  -0.003680,   1.063394,  -0.841387, -267.000000, -148.500000, -453.000000,  -0.065232, -91.061160, -179.566416,   0.002244,  -0.003098,   0.713593,  -0.700501, 
16906,   0.027462,  -9.760891,  -0.164338,  -0.077476,   0.172808,  -0.030235,  -0.006374,   1.069370,  -0.826296, -268.500000, -145.500000, -448.500000,  -0.067390, -91.060960, -179.569152,   0.002214,  -0.003094,   0.713592,  -0.700502, 
16907,   0.015211,  -9.748300,  -0.164879,  -0.033590,   0.170683,  -0.039459,  -0.002742,   1.081499,  -0.815812, -267.000000, -141.000000, -445.500000,  -0.066179, -91.058488, -179.576016,   0.002179,  -0.003044,   0.713577,  -0.700518, 
16908,   0.015067,  -9.802832,  -0.181246,  -0.054760,   0.148876,  -0.061354,  -0.017779,   1.071185,  -0.819885, -274.500000, -144.000000, -447.000000,  -0.066474, -91.059024, -179.561408,   0.002267,  -0.003137,   0.713580,  -0.700514, 
16909,   0.014023,  -9.751237,  -0.170792,  -0.230114,   0.259779,  -0.100962,  -0.012187,   1.065661,  -0.835300, -271.500000, -147.000000, -451.500000,  -0.066545, -91.059304, -179.554656,   0.002307,  -0.003180,   0.713581,  -0.700512, 
16910,   0.005742,  -9.749222,  -0.178131,  -0.062069,   0.172341,  -0.115169,   0.005575,   1.075612,  -0.827014, -262.500000, -144.000000, -448.500000,  -0.065901, -91.058728, -179.574880,   0.002188,  -0.003050,   0.713579,  -0.700516, 
16911,   0.020455,  -9.783173,  -0.171946,  -0.101951,   0.197305,  -0.083254,   0.009207,   1.087741,  -0.816531, -261.000000, -139.500000, -445.500000,  -0.067301, -91.058616, -179.600288,   0.002024,  -0.002900,   0.713579,  -0.700518, 
16912,   0.024411,  -9.751383,  -0.186387,  -0.115589,   0.172737,  -0.061600,   0.000684,   1.087201,  -0.820096, -265.500000, -139.500000, -447.000000,  -0.067870, -91.058664, -179.612272,   0.001947,  -0.002829,   0.713580,  -0.700518, 
16913,   0.008511,  -9.753036,  -0.146047,  -0.127902,   0.179615,  -0.075151,   0.000667,   1.084394,  -0.829749, -265.500000, -141.000000, -450.000000,  -0.068193, -91.056128, -179.623824,   0.001875,  -0.002759,   0.713565,  -0.700534, 
16914,   0.009942,  -9.792242,  -0.214850,  -0.008274,   0.219982,  -0.051842,   0.003736,   1.085660,  -0.834610, -264.000000, -141.000000, -451.500000,  -0.066595, -91.058312, -179.639440,   0.001789,  -0.002652,   0.713579,  -0.700521, 
16915,  -0.002234,  -9.757691,  -0.160885,  -0.085740,   0.108570,  -0.032434,  -0.004786,   1.085120,  -0.838176, -268.500000, -141.000000, -453.000000,  -0.065170, -91.058584, -179.641920,   0.001783,  -0.002628,   0.713581,  -0.700520, 
16916,   0.011061,  -9.720943,  -0.142925,  -0.069818,   0.164568,  -0.092185,  -0.007309,   1.091911,  -0.827622, -270.000000, -138.000000, -450.000000,  -0.063918, -91.054728, -179.640288,   0.001801,  -0.002630,   0.713557,  -0.700544, 
16917,  -0.001634,  -9.786586,  -0.195129,  -0.110261,   0.223969,  -0.091575,  -0.013276,   1.090193,  -0.822436, -273.000000, -138.000000, -448.500000,  -0.062125, -91.055736, -179.629856,   0.001875,  -0.002684,   0.713563,  -0.700537, 
16918,   0.009835,  -9.772371,  -0.167100,  -0.107982,   0.172798,  -0.046043,  -0.014522,   1.076072,  -0.819631, -273.000000, -142.500000, -447.000000,  -0.062078, -91.056160, -179.618352,   0.001946,  -0.002756,   0.713565,  -0.700534, 
16919,  -0.010010,  -9.759423,  -0.166255,  -0.076863,   0.125989,  -0.101651,  -0.010891,   1.088201,  -0.809147, -271.500000, -138.000000, -444.000000,  -0.060303, -91.055456, -179.611664,   0.001998,  -0.002786,   0.713561,  -0.700538, 
16920,  -0.031689,  -9.762756,  -0.161632,  -0.046452,   0.211964,  -0.091085,  -0.010703,   1.091822,  -0.804033, -271.500000, -136.500000, -442.500000,  -0.055452, -91.053160, -179.604176,   0.002074,  -0.002803,   0.713546,  -0.700552, 
16921,   0.016416,  -9.798421,  -0.225692,  -0.110742,   0.179620,  -0.066259,  -0.009785,   1.066475,  -0.812359, -270.000000, -145.500000, -444.000000,  -0.056915, -91.057120, -179.600496,   0.002087,  -0.002835,   0.713570,  -0.700527, 
16922,  -0.004992,  -9.749735,  -0.160375,  -0.085954,   0.077657,  -0.086171,  -0.012512,   1.066838,  -0.816573, -271.500000, -145.500000, -445.500000,  -0.055477, -91.058192, -179.591472,   0.002151,  -0.002883,   0.713577,  -0.700521, 
16923,   0.018212,  -9.777792,  -0.200877,   0.052570,   0.187929,  -0.107827,  -0.011812,   1.072903,  -0.825070, -271.500000, -144.000000, -448.500000,  -0.054211, -91.058080, -179.583776,   0.002207,  -0.002923,   0.713576,  -0.700521, 
16924,   0.012294,  -9.774788,  -0.214493,  -0.050692,   0.170501,  -0.083166,  -0.014351,   1.076887,  -0.824169, -273.000000, -142.500000, -448.500000,  -0.055523, -91.061256, -179.573680,   0.002260,  -0.002994,   0.713595,  -0.700501, 
16925,  -0.009250,  -9.739310,  -0.179220,  -0.050706,   0.170545,  -0.074462,  -0.011624,   1.076524,  -0.819955, -271.500000, -142.500000, -447.000000,  -0.052823, -91.060784, -179.565856,   0.002325,  -0.003026,   0.713592,  -0.700504, 
16926,   0.016364, -10.093100,  -0.014024,  -0.335087,   0.238460,   0.907043,  -0.005657,   1.078241,  -0.825140, -268.500000, -142.500000, -448.500000,  -0.049596, -91.052656, -179.568672,   0.002328,  -0.002989,   0.713542,  -0.700554, 
16927,  -0.153949,  -9.492450,  -0.100458,   0.056098,  -0.346484,  -0.239124,  -0.005795,   1.083040,  -0.801298, -268.500000, -139.500000, -441.000000,  -0.054355, -91.058880, -179.574240,   0.002264,  -0.002983,   0.713581,  -0.700516, 
16928,   0.347750,  -9.959249,  -0.261102,  -0.101815,   0.416883,   1.112951,  -0.005111,   1.086298,  -0.819448, -268.500000, -139.500000, -447.000000,  -0.054568, -91.070432, -179.576336,   0.002249,  -0.002972,   0.713651,  -0.700444, 
16929,  -0.089785,  -9.389507,   0.012221,  -0.175054,   0.459582,  -1.019317,  -0.001529,   1.090007,  -0.837922, -267.000000, -139.500000, -453.000000,  -0.052235, -91.055248, -179.580928,   0.002236,  -0.002928,   0.713559,  -0.700539, 
16930,   0.180109, -10.095634,  -0.595887,   0.197698,   0.254392,   0.782652,  -0.002417,   1.080322,  -0.834540, -267.000000, -142.500000, -451.500000,  -0.061834, -91.070240, -179.595360,   0.002088,  -0.002898,   0.713650,  -0.700446, 
16931,  -0.241823,  -9.310391,   0.063666,  -0.182728,  -0.167576,  -0.151547,  -0.006374,   1.069370,  -0.826296, -268.500000, -145.500000, -448.500000,  -0.044005, -91.057448, -179.590848,   0.002227,  -0.002816,   0.713573,  -0.700525, 
16932,   0.211834, -10.116671,  -0.475272,   0.430916,   0.277150,   0.115499,  -0.005657,   1.078241,  -0.825140, -268.500000, -142.500000, -448.500000,  -0.062823, -91.062032, -179.601936,   0.002042,  -0.002863,   0.713600,  -0.700497, 
16933,  -0.204176,  -9.491274,   0.011889,  -0.610149,   0.038266,  -0.100381,   0.004282,   1.093717,  -0.828918, -264.000000, -138.000000, -450.000000,  -0.045590, -91.062920, -179.602768,   0.002144,  -0.002752,   0.713607,  -0.700492, 
16934,   0.104011,  -9.980596,  -0.326081,   0.441590,   0.472361,   0.023352,   0.006464,   1.085297,  -0.830397, -262.500000, -141.000000, -450.000000,  -0.048738, -91.057792, -179.624336,   0.001993,  -0.002637,   0.713576,  -0.700524, 
16935,  -0.042483,  -9.613442,  -0.105611,  -0.637844,  -0.102376,   0.218823,  -0.001124,   1.062217,  -0.832636, -265.500000, -148.500000, -450.000000,  -0.048003, -91.066624, -179.637456,   0.001917,  -0.002551,   0.713631,  -0.700470, 
16936,   0.021355,  -9.854058,  -0.187332,   0.354073,   0.330967,   0.167826,  -0.004022,   1.061765,  -0.832312, -267.000000, -148.500000, -450.000000,  -0.040205, -91.056448, -179.640288,   0.001948,  -0.002485,   0.713569,  -0.700533, 
16937,   0.085650,  -9.735475,  -0.223362,  -0.619441,   0.031294,   0.273618,  -0.002571,   1.082314,  -0.820350, -267.000000, -141.000000, -447.000000,  -0.048054, -91.071664, -179.650400,   0.001837,  -0.002471,   0.713663,  -0.700439, 
16938,  -0.082220,  -9.690268,  -0.017435,   0.233278,   0.232182,  -0.070238,   0.001197,   1.089644,  -0.833709, -265.500000, -139.500000, -451.500000,  -0.036581, -91.053352, -179.653328,   0.001891,  -0.002382,   0.713551,  -0.700553, 
16939,   0.018770,  -9.906351,  -0.343190,  -0.352591,   0.157015,   0.626910,  -0.001700,   1.089193,  -0.833385, -267.000000, -139.500000, -451.500000,  -0.028301, -91.065816, -179.660480,   0.001899,  -0.002287,   0.713628,  -0.700476, 
16940,   0.032011,  -9.639277,  -0.040745,  -0.035761,  -0.015118,   0.157383,  -0.001871,   1.088378,  -0.828847, -267.000000, -139.500000, -450.000000,  -0.034615, -91.061400, -179.670256,   0.001800,  -0.002265,   0.713601,  -0.700504, 
16941,  -0.008748,  -9.832514,  -0.267214,  -0.101043,   0.304503,   0.005689,   0.001181,   1.086838,  -0.843361, -265.500000, -141.000000, -454.500000,  -0.028216, -91.062544, -179.675808,   0.001805,  -0.002191,   0.713609,  -0.700497, 
16942,   0.032478,  -9.718346,  -0.103943,  -0.240186,   0.145211,   0.105761,  -0.002792,   1.073080,  -0.844770, -267.000000, -145.500000, -454.500000,  -0.027220, -91.063736, -179.683168,   0.001767,  -0.002139,   0.713616,  -0.700490, 
16943,  -0.040334,  -9.878559,  -0.224989,   0.033478,   0.056384,   0.255148,  -0.011999,   1.069282,  -0.830185, -271.500000, -145.500000, -450.000000,  -0.023840, -91.062736, -179.679584,   0.001810,  -0.002141,   0.713610,  -0.700496, 
16944,  -0.069314,  -9.746200,  -0.156656,  -0.250436,   0.077027,   0.687534,  -0.014009,   1.078516,  -0.833244, -273.000000, -142.500000, -451.500000,  -0.011974, -91.065416, -179.664464,   0.001976,  -0.002162,   0.713627,  -0.700479, 
16945,  -0.033997,  -9.766996,  -0.171751,  -0.017856,   0.239252,   1.206452,  -0.008059,   1.077427,  -0.848082, -270.000000, -144.000000, -456.000000,   0.008597, -91.059208, -179.651376,   0.002184,  -0.002118,   0.713589,  -0.700517, 
16946,  -0.356809,  -9.893220,  -0.231489,  -0.091570,  -0.047613,   2.488579,  -0.010957,   1.076975,  -0.847758, -271.500000, -144.000000, -456.000000,   0.061801, -91.064808, -179.629248,   0.002651,  -0.001931,   0.713621,  -0.700478, 
16947,  -0.427950,  -9.909286,  -0.016620,  -0.157443,   0.107801,   6.781166,  -0.008026,   1.083040,  -0.828777, -270.000000, -141.000000, -450.000000,   0.173477, -91.054248, -179.592240,   0.003573,  -0.001478,   0.713553,  -0.700536, 
16948,  -0.013662,  -9.807781,  -0.210578,   0.354597,   0.244789,   9.461044,  -0.010907,   1.085395,  -0.818800, -271.500000, -139.500000, -447.000000,   0.274876, -91.052576, -179.575344,   0.004307,  -0.000963,   0.713541,  -0.700539, 
16949,   0.671331,  -9.423576,  -0.167440,   0.295760,   0.535361,   5.349067,  -0.013105,   1.091008,  -0.826974, -273.000000, -138.000000, -450.000000,   0.317654, -91.046152, -179.600080,   0.004422,  -0.000548,   0.713501,  -0.700578, 
16950,  -0.120697,  -9.990291,  -0.343697,   0.319353,  -0.246338,   2.080538,   0.000497,   1.083580,  -0.825211, -265.500000, -141.000000, -448.500000,   0.320655, -91.058656, -179.602896,   0.004424,  -0.000512,   0.713578,  -0.700500, 
16951,  -0.240150,  -9.648233,  -0.032747,  -0.116129,   0.361234,   4.157835,   0.002694,   1.077967,  -0.817038, -264.000000, -142.500000, -445.500000,   0.389902, -91.047016, -179.587648,   0.004948,  -0.000183,   0.713505,  -0.700567, 
16952,  -0.276322,  -9.917643,  -0.301725,   0.197866,   0.161178,   5.193391,  -0.000266,   1.106935,  -0.831075, -267.000000, -133.500000, -451.500000,   0.461221, -91.050368, -179.578576,   0.005448,   0.000195,   0.713524,  -0.700542, 
16953,  -0.187398,  -9.731272,  -0.088280,  -0.311433,   0.098109,   6.943687,  -0.001871,   1.088378,  -0.828847, -267.000000, -139.500000, -450.000000,   0.543531, -91.050096, -179.563584,   0.006052,   0.000605,   0.713521,  -0.700537, 
16954,  -0.179752,  -9.851369,  -0.242534,   0.227638,   0.202716,   8.127348,  -0.006716,   1.067741,  -0.817221, -268.500000, -145.500000, -445.500000,   0.630673, -91.048200, -179.546720,   0.006698,   0.001033,   0.713508,  -0.700542, 
16955,  -0.133996,  -9.753446,  -0.144552,  -0.505922,   0.012070,   8.595510,  -0.005657,   1.078241,  -0.825140, -268.500000, -142.500000, -448.500000,   0.718479, -91.052544, -179.528128,   0.007358,   0.001454,   0.713534,  -0.700509, 
16956,  -0.136487,  -9.753614,  -0.153620,   0.139311,   0.118819,   9.082209,   0.003565,   1.084846,  -0.830073, -264.000000, -141.000000, -450.000000,   0.811798, -91.045320, -179.514016,   0.008025,   0.001937,   0.713488,  -0.700547, 
16957,  -0.145247,  -9.844625,  -0.237551,  -0.416264,  -0.039197,   9.438805,   0.006839,   1.092539,  -0.820167, -262.500000, -138.000000, -447.000000,   0.899393, -91.055744, -179.511360,   0.008587,   0.002455,   0.713551,  -0.700476, 
16958,  -0.325552,  -9.748256,  -0.081845,  -0.060507,   0.089746,  10.271793,   0.003769,   1.091273,  -0.815305, -264.000000, -138.000000, -445.500000,   1.017419, -91.047256, -179.494240,   0.009426,   0.003071,   0.713498,  -0.700520, 
16959,  -0.345691,  -9.903625,  -0.273708,  -0.290611,  -0.002380,  12.071065,   0.003223,   1.083217,  -0.820998, -264.000000, -141.000000, -447.000000,   1.149382, -91.056392, -179.472784,   0.010380,   0.003743,   0.713553,  -0.700452, 
16960,  -0.531965,  -9.803544,  -0.088733,  -0.215252,  -0.011219,  14.837339,   0.002710,   1.080773,  -0.807385, -264.000000, -141.000000, -442.500000,   1.326951, -91.051336, -179.436096,   0.011709,   0.004600,   0.713522,  -0.700468, 
16961,  -0.457652,  -9.911073,  -0.261433,  -0.171177,  -0.052299,  17.857986,   0.005438,   1.080410,  -0.803172, -262.500000, -141.000000, -441.000000,   1.526223, -91.057312, -179.400656,   0.013167,   0.005597,   0.713549,  -0.700404, 
16962,  -0.553760,  -9.750227,  -0.112466,  -0.337405,  -0.134345,  20.307960,  -0.003084,   1.079870,  -0.806737, -267.000000, -141.000000, -442.500000,   1.753762, -91.055248, -179.354272,   0.014866,   0.006700,   0.713520,  -0.700377, 
16963,  -0.619925,  -9.957729,  -0.241166,  -0.142779,  -0.111889,  23.256934,  -0.003785,   1.073806,  -0.798239, -267.000000, -142.500000, -439.500000,   2.017180, -91.057880, -179.292480,   0.016884,   0.007925,   0.713519,  -0.700313, 
16964,  -0.654537,  -9.792315,  -0.140393,  -0.468656,  -0.219208,  26.301334,   0.004549,   1.070725,  -0.799789, -262.500000, -144.000000, -439.500000,   2.305157, -91.062176, -179.232512,   0.019044,   0.009311,   0.713528,  -0.700233, 
16965,  -0.816485,  -9.947495,  -0.231083,  -0.230774,  -0.157212,  29.853928,   0.011217,   1.078507,  -0.813472, -259.500000, -142.500000, -444.000000,   2.638222, -91.064288, -179.170656,   0.021495,   0.010961,   0.713523,  -0.700157, 
16966,  -0.928323,  -9.932345,  -0.189743,  -0.612251,  -0.347464,  34.251964,   0.009378,   1.088555,  -0.821068, -261.000000, -139.500000, -447.000000,   3.018239, -91.072944, -179.101552,   0.024284,   0.012852,   0.713542,  -0.700015, 
16967,  -1.126060, -10.016209,  -0.174159,  -0.410151,  -0.358718,  39.905104,   0.012634,   1.093442,  -0.820814, -259.500000, -138.000000, -447.000000,   3.468985, -91.073000, -179.012736,   0.027632,   0.015053,   0.713491,  -0.699888, 
16968,  -1.160491,  -9.979268,  -0.190325,  -0.729320,  -0.607500,  46.038544,   0.020269,   1.084297,  -0.813867, -255.000000, -141.000000, -444.000000,   3.975098, -91.080480, -178.924016,   0.031324,   0.017592,   0.713482,  -0.699697, 
16969,  -1.096196,  -9.898685,  -0.164413,  -0.644402,  -0.490464,  51.210140,   0.027904,   1.075151,  -0.806919, -250.500000, -144.000000, -441.000000,   4.522928, -91.084472, -178.839472,   0.035249,   0.020411,   0.713428,  -0.699490, 
16970,  -0.970335,  -9.861779,  -0.229549,  -0.752263,  -0.636529,  54.314272,   0.030802,   1.075603,  -0.807243, -249.000000, -144.000000, -441.000000,   5.069557, -91.093456, -178.769072,   0.039081,   0.023309,   0.713386,  -0.699235, 
16971,  -0.728518,  -9.759437,  -0.146890,  -0.797054,  -0.507354,  55.594436,   0.028075,   1.075966,  -0.811456, -250.500000, -144.000000, -442.500000,   5.606340, -91.097032, -178.697088,   0.042860,   0.026139,   0.713319,  -0.699011, 
16972,  -0.607535,  -9.701337,  -0.228506,  -0.684329,  -0.817664,  53.711300,   0.037737,   1.060393,  -0.791797, -244.500000, -148.500000, -435.000000,   6.086422, -91.107760, -178.641168,   0.046188,   0.028717,   0.713270,  -0.698730, 
16973,  -0.804806,  -9.669322,  -0.136905,  -0.660115,  -0.570531,  51.007412,   0.049108,   1.052965,  -0.817513, -238.500000, -153.000000, -442.500000,   6.560691, -91.112808, -178.591488,   0.049440,   0.031302,   0.713188,  -0.698484, 
16974,  -1.151609,  -9.811384,  -0.241488,  -0.692931,  -0.578237,  50.060228,   0.049092,   1.050158,  -0.827166, -238.500000, -154.500000, -445.500000,   7.048880, -91.121336, -178.518656,   0.052921,   0.033825,   0.713126,  -0.698191, 
16975,  -1.467573,  -9.846675,  -0.206490,  -0.777395,  -0.740938,  51.652912,   0.054000,   1.041376,  -0.824431, -235.500000, -157.500000, -444.000000,   7.572135, -91.129408, -178.429312,   0.056717,   0.036457,   0.713023,  -0.697837, 
16976,  -1.594185,  -9.823871,  -0.188730,  -0.744708,  -0.624197,  54.993408,   0.056539,   1.037392,  -0.825333, -234.000000, -159.000000, -444.000000,   8.137649, -91.134736, -178.324848,   0.060867,   0.039254,   0.712898,  -0.697465, 
16977,  -1.802151,  -9.883075,  -0.241009,  -0.699608,  -0.918550,  58.744468,   0.062881,   1.046351,  -0.820288, -231.000000, -156.000000, -442.500000,   8.743264, -91.144736, -178.213152,   0.065309,   0.042247,   0.712775,  -0.697010, 
16978,  -1.968486,  -9.862597,  -0.156727,  -0.943679,  -1.033783,  63.573740,   0.071355,   1.038472,  -0.845680, -226.500000, -160.500000, -450.000000,   9.409031, -91.149480, -178.092848,   0.070172,   0.045554,   0.712583,  -0.696517, 
16979,  -1.867095,  -9.822517,  -0.180075,  -0.683116,  -0.793831,  67.728320,   0.079707,   1.038197,  -0.837577, -222.000000, -160.500000, -447.000000,  10.096980, -91.154728, -177.980304,   0.075123,   0.049044,   0.712371,  -0.695986, 
16980,  -1.895978,  -9.789524,  -0.205710,  -0.928156,  -0.919758,  70.259800,   0.078665,   1.030504,  -0.820005, -222.000000, -162.000000, -441.000000,  10.794197, -91.165840, -177.864032,   0.080153,   0.052560,   0.712168,  -0.695368, 
16981,  -1.810506,  -9.656453,  -0.133573,  -0.877874,  -0.861049,  71.331856,   0.083931,   1.026157,  -0.816692, -219.000000, -163.500000, -439.500000,  11.490346, -91.170520, -177.746112,   0.085181,   0.056063,   0.711917,  -0.694763, 
16982,  -1.642639,  -9.634445,  -0.259192,  -0.917870,  -0.723352,  70.402640,   0.098062,   1.023979,  -0.818890, -211.500000, -165.000000, -439.500000,  12.143981, -91.184872, -177.656496,   0.089775,   0.059474,   0.711706,  -0.694110, 
16983,  -1.779695,  -9.512347,  -0.156851,  -0.881965,  -0.948233,  68.179792,   0.109638,   1.022978,  -0.829839, -205.500000, -166.500000, -442.500000,  12.779338, -91.194360, -177.568208,   0.094244,   0.062783,   0.711470,  -0.693487, 
16984,  -1.989920,  -9.541513,  -0.220405,  -0.783576,  -0.978906,  65.691292,   0.109279,   1.018543,  -0.830416, -205.500000, -168.000000, -442.500000,  13.397788, -91.204072, -177.463488,   0.098702,   0.065884,   0.711223,  -0.692818, 
16985,  -2.244350,  -9.610202,  -0.226480,  -0.941076,  -1.345342,  65.282716,   0.108033,   1.004422,  -0.827611, -205.500000, -172.500000, -441.000000,  14.024075, -91.214992, -177.464864,   0.102568,   0.069690,   0.710918,  -0.692221, 
16986,  -2.386316,  -9.582476,  -0.209224,  -0.903963,  -1.804145,  66.040832,   0.117427,   1.011841,  -0.837080, -201.000000, -171.000000, -444.000000,  14.663715, -91.224792, -177.325232,   0.107361,   0.072698,   0.710647,  -0.691448, 
16987,  -2.427837,  -9.474222,  -0.179361,  -1.076800,  -1.919543,  66.010764,   0.122677,   1.004687,  -0.843421, -198.000000, -174.000000, -445.500000,  15.302558, -91.232192, -177.182144,   0.112168,   0.075683,   0.710370,  -0.690674, 
16988,  -2.589605,  -9.510107,  -0.231346,  -0.770568,  -2.177121,  66.227144,   0.133381,   0.996808,  -0.841334, -192.000000, -177.000000, -444.000000,  15.946500, -91.239224, -177.040416,   0.116989,   0.078703,   0.710049,  -0.689844, 
16989,  -2.747887,  -9.530722,  -0.240212,  -0.953961,  -2.387258,  66.804472,   0.145878,   1.011106,  -0.836361, -186.000000, -172.500000, -442.500000,  16.597033, -91.250248, -176.895088,   0.121871,   0.081735,   0.709747,  -0.688956, 
16990,  -3.028827,  -9.363253,  -0.072224,  -1.058833,  -0.701834,  67.573016,   0.147529,   0.997436,  -0.833880, -184.500000, -177.000000, -441.000000,  17.301680, -91.237904, -176.719248,   0.127245,   0.084929,   0.709266,  -0.688081, 
16991,  -3.025837,  -9.451460,  -0.311869,  -0.751792,  -0.760240,  68.471768,   0.143043,   0.981235,  -0.821676, -186.000000, -181.500000, -436.500000,  17.976182, -91.249040, -176.725744,   0.131352,   0.089042,   0.708802,  -0.687272, 
16992,  -2.958133,  -9.293716,  -0.121814,  -0.949856,  -0.858895,  68.224144,   0.154447,   0.979420,  -0.828087, -180.000000, -183.000000, -438.000000,  18.636090, -91.256000, -176.730656,   0.135372,   0.093057,   0.708298,  -0.686478, 
16993,  -3.138767,  -9.443448,  -0.242476,  -0.570793,  -0.781051,  67.959912,   0.161708,   0.963032,  -0.831369, -175.500000, -189.000000, -438.000000,  19.293464, -91.265104, -176.736624,   0.139368,   0.097057,   0.707785,  -0.685652, 
16994,  -3.290997,  -9.242105,  -0.139604,  -0.992611,  -0.813520,  68.381136,   0.159526,   0.971452,  -0.829890, -177.000000, -186.000000, -438.000000,  19.962258, -91.275904, -176.743136,   0.143429,   0.101124,   0.707250,  -0.684784, 
16995,  -3.369455,  -9.318419,  -0.241159,  -0.529061,  -0.759102,  68.796248,   0.171289,   0.974072,  -0.835723, -171.000000, -186.000000, -439.500000,  20.633110, -91.283560, -176.748848,   0.147499,   0.105197,   0.706665,  -0.683903, 
16996,  -3.588311,  -9.201759,  -0.214383,  -0.916063,  -0.738095,  69.253624,   0.183270,   0.945281,  -0.841385, -163.500000, -196.500000, -439.500000,  21.317074, -91.298176, -176.757424,   0.151635,   0.109355,   0.706089,  -0.682951, 
16997,  -3.698900,  -9.240952,  -0.188086,  -0.644011,  -0.849446,  70.220656,   0.180388,   0.947636,  -0.831409, -165.000000, -195.000000, -436.500000,  22.011520, -91.302432, -176.762080,   0.155843,   0.113559,   0.705408,  -0.682011, 
16998,  -3.948850,  -9.146542,  -0.203459,  -0.818973,  -0.866625,  72.011232,   0.184191,   0.960580,  -0.825463, -163.500000, -190.500000, -435.000000,  22.734376, -91.313792, -176.769664,   0.160210,   0.117939,   0.704721,  -0.680976, 
16999,  -4.024331,  -9.156248,  -0.221733,  -0.694532,  -0.935952,  74.178408,   0.188040,   0.941297,  -0.814809, -160.500000, -196.500000, -430.500000,  23.475710, -91.320640, -176.775440,   0.164687,   0.122419,   0.703950,  -0.679906, 
17000,  -4.054980,  -9.055668,  -0.220712,  -0.997685,  -0.890568,  75.968680,   0.187290,   0.926813,  -0.835269, -160.500000, -202.500000, -436.500000,  24.226912, -91.334264, -176.783920,   0.169211,   0.126959,   0.703182,  -0.678762, 
17001,  -4.071567,  -8.988298,  -0.185380,  -0.845579,  -1.002491,  76.769032,   0.198832,   0.920200,  -0.865522, -154.500000, -207.000000, -445.500000,  24.979320, -91.341440, -176.789312,   0.173747,   0.131491,   0.702344,  -0.677620, 
17002,  -4.098647,  -8.913689,  -0.208548,  -0.939052,  -0.959481,  76.438056,   0.203740,   0.911417,  -0.862787, -151.500000, -210.000000, -444.000000,  25.722472, -91.353800, -176.797248,   0.178211,   0.135968,   0.701513,  -0.676435, 
17003,  -4.125901,  -8.839150,  -0.192176,  -0.911270,  -0.901606,  75.586504,   0.210316,   0.891772,  -0.847920, -147.000000, -216.000000, -438.000000,  26.447038, -91.365904, -176.805168,   0.182557,   0.140328,   0.700678,  -0.675258, 
17004,  -4.280580,  -8.748670,  -0.208611,  -0.882681,  -0.827887,  74.352312,   0.221363,   0.885521,  -0.854908, -141.000000, -219.000000, -439.500000,  27.167402, -91.377168, -176.813568,   0.186866,   0.144660,   0.699807,  -0.674060, 
17005,  -4.408136,  -8.716273,  -0.191835,  -0.812202,  -0.815209,  73.378584,   0.221192,   0.884707,  -0.850371, -141.000000, -219.000000, -438.000000,  27.880548, -91.388536, -176.821568,   0.191130,   0.148941,   0.698927,  -0.672854, 
17006,  -4.629710,  -8.723563,  -0.238344,  -0.828761,  -0.835399,  72.899384,   0.218155,   0.889054,  -0.826204, -142.500000, -216.000000, -430.500000,  28.590994, -91.400976, -176.830896,   0.195363,   0.153204,   0.698018,  -0.671616, 
17007,  -4.835014,  -8.630051,  -0.186105,  -0.838355,  -0.841442,  73.456152,   0.220524,   0.884255,  -0.822568, -141.000000, -217.500000, -429.000000,  29.318100, -91.412616, -176.839792,   0.199693,   0.157560,   0.697063,  -0.670337, 
17008,  -5.006597,  -8.575523,  -0.216265,  -0.823677,  -0.907114,  74.543024,   0.233784,   0.875198,  -0.811731, -133.500000, -220.500000, -424.500000,  30.061910, -91.424520, -176.848768,   0.204113,   0.162004,   0.696045,  -0.668990, 
17009,  -4.983002,  -8.553708,  -0.241452,  -0.919639,  -0.883927,  75.560624,   0.235965,   0.866779,  -0.813210, -132.000000, -223.500000, -424.500000,  30.802078, -91.442592, -176.861184,   0.208496,   0.166432,   0.695046,  -0.667604, 
17010,  -5.024062,  -8.415095,  -0.190057,  -0.942104,  -0.943383,  75.520640,   0.238830,   0.861617,  -0.832839, -130.500000, -226.500000, -430.500000,  31.539282, -91.454376, -176.869712,   0.212863,   0.170818,   0.693975,  -0.666213, 
17011,  -5.206280,  -8.353730,  -0.201668,  -0.918685,  -0.850202,  75.195712,   0.244968,   0.864149,  -0.842561, -127.500000, -226.500000, -433.500000,  32.281014, -91.468416, -176.880016,   0.217248,   0.175234,   0.692896,  -0.664794, 
17012,  -5.256619,  -8.279652,  -0.205862,  -0.902298,  -0.899644,  74.810144,   0.249330,   0.847310,  -0.845520, -124.500000, -232.500000, -433.500000,  33.014762, -91.481768, -176.890544,   0.221569,   0.179591,   0.691775,  -0.663348, 
17013,  -5.461027,  -8.262841,  -0.220620,  -0.789906,  -0.923743,  74.786784,   0.252975,   0.821600,  -0.849633, -121.500000, -241.500000, -433.500000,  33.752780, -91.495472, -176.901088,   0.225916,   0.183971,   0.690642,  -0.661888, 
17014,  -5.538957,  -8.182371,  -0.212097,  -1.025027,  -0.913807,  75.079296,   0.260252,   0.808019,  -0.843262, -117.000000, -246.000000, -430.500000,  34.492616, -91.510584, -176.912400,   0.230255,   0.188347,   0.689457,  -0.660366, 
17015,  -5.560299,  -8.082845,  -0.193499,  -0.807433,  -0.885949,  75.213696,   0.268228,   0.800503,  -0.845389, -112.500000, -249.000000, -430.500000,  35.230112, -91.521928, -176.921168,   0.234588,   0.192699,   0.688253,  -0.658862, 
17016,  -5.550741,  -7.983780,  -0.206279,  -1.076790,  -0.869941,  74.352328,   0.279991,   0.803123,  -0.851223, -106.500000, -249.000000, -432.000000,  35.949896, -91.538392, -176.933648,   0.238788,   0.196944,   0.687053,  -0.657326, 
17017,  -5.562629,  -7.845853,  -0.202798,  -0.811565,  -0.872175,  72.672640,   0.282327,   0.792712,  -0.866892, -105.000000, -253.500000, -436.500000,  36.653620, -91.551936, -176.944208,   0.242899,   0.201087,   0.685860,  -0.655831, 
17018,  -5.594978,  -7.770364,  -0.192824,  -0.870358,  -0.821659,  69.945960,   0.275472,   0.781309,  -0.858324, -108.000000, -256.500000, -433.500000,  37.326680, -91.566288, -176.955600,   0.246811,   0.205041,   0.684681,  -0.654355, 
17019,  -5.775188,  -7.700197,  -0.211365,  -0.690370,  -0.810260,  67.409800,   0.288870,   0.767453,  -0.871329, -100.500000, -262.500000, -436.500000,  37.984536, -91.578000, -176.965376,   0.250640,   0.208900,   0.683515,  -0.652923, 
17020,  -6.000189,  -7.656784,  -0.221471,  -0.808135,  -0.702235,  65.469672,   0.293607,   0.757856,  -0.864056, -97.500000, -265.500000, -433.500000,  38.628948, -91.595600, -176.979088,   0.254362,   0.212677,   0.682353,  -0.651450, 
17021,  -6.136259,  -7.640233,  -0.209884,  -0.702262,  -0.753181,  64.634428,   0.295975,   0.753058,  -0.860421, -96.000000, -267.000000, -432.000000,  39.268048, -91.607280, -176.988960,   0.258066,   0.216412,   0.681174,  -0.650016, 
17022,  -6.308091,  -7.533714,  -0.198502,  -0.738453,  -0.762468,  64.541048,   0.295071,   0.740566,  -0.866691, -96.000000, -271.500000, -433.500000,  39.909808, -91.620912, -177.000288,   0.261766,   0.220153,   0.679958,  -0.648532, 
17023,  -6.403032,  -7.529262,  -0.196453,  -0.677238,  -0.778466,  64.921456,   0.303219,   0.733864,  -0.873355, -91.500000, -274.500000, -435.000000,  40.556612, -91.632952, -177.010832,   0.265496,   0.223919,   0.678716,  -0.647038, 
17024,  -6.437351,  -7.406048,  -0.212493,  -0.776786,  -0.696679,  65.021424,   0.312847,   0.712678,  -0.873001, -85.500000, -282.000000, -433.500000,  41.200020, -91.649552, -177.024640,   0.269185,   0.227662,   0.677468,  -0.645504, 
17025,  -6.497665,  -7.311950,  -0.226518,  -0.780558,  -0.795717,  64.980940,   0.314858,   0.703444,  -0.869943, -84.000000, -285.000000, -432.000000,  41.846932, -91.667080, -177.038816,   0.272890,   0.231419,   0.676201,  -0.643943, 
17026,  -6.519035,  -7.209843,  -0.183067,  -0.829454,  -0.723353,  64.416960,   0.317756,   0.703895,  -0.870267, -82.500000, -285.000000, -432.000000,  42.485264, -91.680488, -177.050304,   0.276544,   0.235112,   0.674910,  -0.642401, 
17027,  -6.600842,  -7.202237,  -0.211278,  -0.649117,  -0.758301,  63.651516,   0.314157,   0.697379,  -0.861445, -84.000000, -286.500000, -429.000000,  43.111856, -91.695504, -177.063328,   0.280117,   0.238733,   0.673624,  -0.640858, 
17028,  -6.653489,  -7.068473,  -0.211251,  -0.834588,  -0.747341,  62.807408,   0.318723,   0.686968,  -0.849635, -81.000000, -289.500000, -424.500000,  43.731116, -91.712168, -177.077104,   0.283644,   0.242308,   0.672351,  -0.639317, 
17029,  -6.700974,  -6.990253,  -0.223683,  -0.704855,  -0.643319,  61.746988,   0.321980,   0.691855,  -0.849382, -79.500000, -288.000000, -424.500000,  44.342004, -91.729080, -177.091216,   0.287108,   0.245822,   0.671061,  -0.637764, 
17030,  -6.785819,  -6.903527,  -0.210027,  -0.676857,  -0.649259,  60.397276,   0.315638,   0.682895,  -0.854427, -82.500000, -291.000000, -426.000000,  44.938272, -91.744024, -177.104224,   0.290491,   0.249251,   0.669793,  -0.636256, 
17031,  -6.931827,  -6.880624,  -0.202903,  -0.709272,  -0.619497,  59.432384,   0.319486,   0.663613,  -0.843772, -79.500000, -297.000000, -421.500000,  45.526500, -91.759992, -177.118320,   0.293809,   0.252623,   0.668508,  -0.634730, 
17032,  -7.076699,  -6.814080,  -0.221052,  -0.712979,  -0.655472,  59.159000,   0.323815,   0.641161,  -0.866035, -76.500000, -306.000000, -427.500000,  46.116748, -91.778096, -177.133696,   0.297136,   0.256005,   0.667221,  -0.633187, 
17033,  -7.182267,  -6.764348,  -0.217674,  -0.770023,  -0.681547,  59.448012,   0.323986,   0.641975,  -0.870572, -76.500000, -306.000000, -429.000000,  46.708580, -91.796664, -177.149952,   0.300460,   0.259390,   0.665909,  -0.631621, 
17034,  -7.129968,  -6.624728,  -0.241255,  -0.796661,  -0.582815,  59.414660,   0.326201,   0.639169,  -0.852746, -75.000000, -306.000000, -423.000000,  47.299060, -91.820000, -177.169088,   0.303764,   0.262762,   0.664597,  -0.630019, 
17035,  -7.197411,  -6.536837,  -0.185763,  -0.750720,  -0.578152,  58.797344,   0.330375,   0.618709,  -0.860819, -72.000000, -313.500000, -424.500000,  47.887668, -91.834880, -177.182528,   0.307068,   0.266110,   0.663250,  -0.628453, 
17036,  -7.312305,  -6.556216,  -0.247813,  -0.688558,  -0.635777,  58.378296,   0.332539,   0.607483,  -0.871951, -70.500000, -318.000000, -427.500000,  48.465232, -91.856680, -177.201152,   0.310281,   0.269390,   0.661916,  -0.626856, 
17037,  -7.371113,  -6.429114,  -0.217083,  -0.785550,  -0.714088,  58.289772,   0.335763,   0.606757,  -0.891003, -69.000000, -319.500000, -433.500000,  49.045696, -91.878504, -177.219632,   0.313514,   0.272685,   0.660574,  -0.625252, 
17038,  -7.428834,  -6.314316,  -0.175533,  -0.724556,  -0.661953,  58.073800,   0.338473,   0.603587,  -0.896441, -67.500000, -321.000000, -435.000000,  49.626924, -91.894328, -177.233360,   0.316750,   0.275959,   0.659179,  -0.623641, 
17039,  -7.544839,  -6.289562,  -0.205299,  -0.621425,  -0.653288,  58.075092,   0.346467,   0.598877,  -0.888916, -63.000000, -322.500000, -432.000000,  50.208636, -91.912672, -177.249648,   0.319976,   0.279237,   0.657776,  -0.622012, 
17040,  -7.610460,  -6.237870,  -0.213425,  -0.742056,  -0.633409,  58.430940,   0.348648,   0.590458,  -0.890395, -61.500000, -325.500000, -432.000000,  50.788288, -91.933688, -177.268544,   0.323180,   0.282504,   0.656374,  -0.620370, 
17041,  -7.581508,  -6.069018,  -0.193029,  -0.742910,  -0.759108,  58.202420,   0.348290,   0.586022,  -0.890973, -61.500000, -327.000000, -432.000000,  51.371744, -91.953408, -177.285264,   0.326400,   0.285770,   0.654929,  -0.618694, 
17042,  -7.624873,  -5.991437,  -0.189168,  -0.664212,  -0.717813,  57.612216,   0.350112,   0.573167,  -0.893029, -60.000000, -331.500000, -432.000000,  51.950456, -91.970440, -177.300816,   0.329595,   0.289009,   0.653483,  -0.617044, 
17043,  -7.607549,  -5.915213,  -0.223216,  -0.729617,  -0.617813,  56.255616,   0.361362,   0.573344,  -0.885250, -54.000000, -331.500000, -429.000000,  52.511140, -91.992176, -177.319872,   0.332667,   0.292139,   0.652066,  -0.615396, 
17044,  -7.659556,  -5.868365,  -0.198195,  -0.718676,  -0.634258,  54.775940,   0.366612,   0.566191,  -0.891591, -51.000000, -334.500000, -430.500000,  53.052168, -92.013896, -177.339696,   0.335624,   0.295161,   0.650691,  -0.613803, 
17045,  -7.802941,  -5.773842,  -0.188576,  -0.723871,  -0.534704,  53.359076,   0.353244,   0.545014,  -0.883530, -57.000000, -340.500000, -427.500000,  53.588656, -92.033536, -177.357152,   0.338559,   0.298144,   0.649312,  -0.612219, 
17046,  -7.862445,  -5.697358,  -0.195460,  -0.662936,  -0.583218,  52.593024,   0.346748,   0.538046,  -0.874384, -60.000000, -342.000000, -424.500000,  54.118388, -92.054784, -177.376192,   0.341441,   0.301081,   0.647927,  -0.610626, 
17047,  -7.872334,  -5.655326,  -0.214390,  -0.574622,  -0.480952,  51.751628,   0.357777,   0.528989,  -0.891025, -54.000000, -346.500000, -429.000000,  54.633272, -92.079136, -177.398128,   0.344234,   0.303942,   0.646590,  -0.609069, 
17048,  -7.965986,  -5.545678,  -0.184915,  -0.745317,  -0.502124,  51.009624,   0.361610,   0.506900,  -0.890023, -51.000000, -354.000000, -427.500000,  55.144752, -92.099680, -177.416912,   0.347007,   0.306766,   0.645229,  -0.607516, 
17049,  -8.003914,  -5.452181,  -0.172150,  -0.683531,  -0.525765,  49.887204,   0.358165,   0.498392,  -0.895392, -52.500000, -357.000000, -429.000000,  55.652316, -92.118448, -177.433504,   0.349758,   0.309555,   0.643859,  -0.605965, 
17050,  -8.028293,  -5.454949,  -0.218957,  -0.570052,  -0.476713,  49.088648,   0.362498,   0.516585,  -0.893406, -51.000000, -351.000000, -429.000000,  56.141128, -92.138568, -177.452112,   0.352400,   0.312247,   0.642541,  -0.604469, 
17051,  -8.149396,  -5.333349,  -0.202072,  -0.689238,  -0.488794,  48.408296,   0.367748,   0.509432,  -0.899746, -48.000000, -354.000000, -430.500000,  56.628052, -92.163320, -177.474688,   0.355011,   0.314924,   0.641216,  -0.602942, 
17052,  -8.143097,  -5.248925,  -0.172459,  -0.662255,  -0.483455,  47.721148,   0.359988,   0.485537,  -0.897448, -51.000000, -361.500000, -429.000000,  57.111372, -92.183376, -177.492816,   0.357611,   0.317565,   0.639879,  -0.601433, 
17053,  -8.189517,  -5.220297,  -0.212917,  -0.592793,  -0.540973,  46.937636,   0.367981,   0.480827,  -0.889923, -46.500000, -363.000000, -426.000000,  57.581268, -92.208808, -177.515744,   0.360128,   0.320143,   0.638594,  -0.599951, 
17054,  -8.285662,  -5.128369,  -0.182292,  -0.565665,  -0.526915,  46.215840,   0.369991,   0.471593,  -0.886864, -45.000000, -366.000000, -424.500000,  58.049016, -92.229792, -177.535104,   0.362626,   0.322688,   0.637274,  -0.598465, 
17055,  -8.330138,  -5.094970,  -0.250470,  -0.573459,  -0.511007,  45.841804,   0.366735,   0.466706,  -0.887118, -46.500000, -367.500000, -424.500000,  58.512824, -92.258632, -177.561184,   0.365089,   0.325220,   0.635981,  -0.596965, 
17056,  -8.379001,  -4.989108,  -0.189385,  -0.624254,  -0.458134,  45.720352,   0.369959,   0.465980,  -0.906169, -45.000000, -369.000000, -430.500000,  58.975612, -92.285072, -177.585168,   0.367552,   0.327741,   0.634682,  -0.595477, 
17057,  -8.395340,  -4.902177,  -0.187677,  -0.589915,  -0.513183,  45.406436,   0.375396,   0.462448,  -0.907395, -42.000000, -370.500000, -430.500000,  59.439072, -92.308888, -177.606864,   0.370010,   0.330247,   0.633348,  -0.593972, 
17058,  -8.431964,  -4.913850,  -0.186187,  -0.571521,  -0.434485,  45.146952,   0.373995,   0.450319,  -0.890399, -42.000000, -373.500000, -424.500000,  59.891896, -92.330616, -177.627280,   0.372409,   0.332691,   0.632031,  -0.592504, 
17059,  -8.471691,  -4.839803,  -0.195875,  -0.666539,  -0.524209,  44.952844,   0.372919,   0.437012,  -0.892132, -42.000000, -378.000000, -424.500000,  60.339616, -92.358960, -177.653280,   0.374773,   0.335116,   0.630746,  -0.591034, 
17060,  -8.533482,  -4.711375,  -0.166740,  -0.656964,  -0.453945,  44.780144,   0.373620,   0.443077,  -0.900630, -42.000000, -376.500000, -427.500000,  60.796156, -92.380384, -177.672512,   0.377188,   0.337560,   0.629394,  -0.589534, 
17061,  -8.623772,  -4.710333,  -0.212265,  -0.529190,  -0.524385,  44.980464,   0.368775,   0.422440,  -0.889003, -43.500000, -382.500000, -423.000000,  61.248868, -92.407904, -177.698224,   0.379563,   0.339993,   0.628057,  -0.588027, 
17062,  -8.586237,  -4.638388,  -0.213707,  -0.605566,  -0.426176,  45.016180,   0.364989,   0.412303,  -0.885297, -45.000000, -385.500000, -421.500000,  61.695624, -92.440496, -177.728352,   0.381901,   0.342401,   0.626749,  -0.586528, 
17063,  -8.632977,  -4.511170,  -0.201575,  -0.579931,  -0.490013,  44.719424,   0.369288,   0.424883,  -0.902616, -43.500000, -382.500000, -427.500000,  62.149796, -92.469056, -177.754752,   0.384276,   0.344828,   0.625388,  -0.585000, 
17064,  -8.664418,  -4.430715,  -0.179918,  -0.587667,  -0.474283,  44.310588,   0.377078,   0.413746,  -0.909858, -39.000000, -387.000000, -429.000000,  62.604448, -92.496352, -177.779920,   0.386651,   0.347247,   0.624010,  -0.583464, 
17065,  -8.674183,  -4.440671,  -0.242883,  -0.472180,  -0.543924,  43.885144,   0.373104,   0.399988,  -0.911266, -40.500000, -391.500000, -429.000000,  63.042976, -92.529744, -177.811424,   0.388928,   0.349594,   0.622692,  -0.581970, 
17066,  -8.688860,  -4.297049,  -0.188862,  -0.731227,  -0.435586,  43.108680,   0.366778,   0.393835,  -0.906658, -43.500000, -393.000000, -427.500000,  63.477772, -92.561864, -177.840976,   0.391186,   0.351906,   0.621371,  -0.580478, 
17067,  -8.668110,  -4.238066,  -0.173979,  -0.483728,  -0.457579,  42.200112,   0.368772,   0.381794,  -0.913252, -42.000000, -397.500000, -429.000000,  63.908824, -92.584344, -177.861808,   0.393430,   0.354173,   0.620022,  -0.579008, 
17068,  -8.687544,  -4.189436,  -0.225369,  -0.658937,  -0.419328,  41.090688,   0.373305,   0.365770,  -0.920748, -39.000000, -403.500000, -430.500000,  64.320876, -92.621760, -177.897024,   0.395548,   0.356367,   0.618764,  -0.577571, 
17069,  -8.688052,  -4.087208,  -0.186615,  -0.569671,  -0.328144,  39.625392,   0.372963,   0.364141,  -0.911673, -39.000000, -403.500000, -427.500000,  64.726120, -92.653608, -177.926288,   0.397644,   0.358509,   0.617515,  -0.576166, 
17070,  -8.771358,  -4.024885,  -0.188111,  -0.413279,  -0.380974,  38.248212,   0.373713,   0.378624,  -0.891213, -39.000000, -397.500000, -421.500000,  65.121644, -92.685416, -177.956608,   0.399670,   0.360592,   0.616268,  -0.574776, 
17071,  -8.794188,  -3.991217,  -0.165832,  -0.589084,  -0.412176,  37.086300,   0.381331,   0.366672,  -0.893917, -34.500000, -402.000000, -421.500000,  65.501664, -92.713976, -177.983472,   0.401623,   0.362586,   0.615065,  -0.573446, 
17072,  -8.853571,  -3.918800,  -0.174488,  -0.555490,  -0.355603,  36.175796,   0.383138,   0.351011,  -0.905626, -33.000000, -408.000000, -424.500000,  65.874384, -92.742560, -178.010112,   0.403541,   0.364540,   0.613886,  -0.572140, 
17073,  -8.864996,  -3.909972,  -0.200928,  -0.417773,  -0.390411,  35.224200,   0.370641,   0.336713,  -0.910600, -39.000000, -412.500000, -426.000000,  66.231444, -92.776576, -178.042032,   0.405363,   0.366415,   0.612759,  -0.570869, 
17074,  -8.889036,  -3.859483,  -0.217204,  -0.457910,  -0.319617,  34.550060,   0.373009,   0.331915,  -0.906964, -37.500000, -414.000000, -424.500000,  66.579392, -92.817024, -178.080592,   0.407117,   0.368247,   0.611657,  -0.569608, 
17075,  -8.976336,  -3.756253,  -0.140276,  -0.483758,  -0.292692,  34.196332,   0.379694,   0.342503,  -0.910995, -34.500000, -411.000000, -426.000000,  66.930144, -92.841056, -178.103472,   0.408912,   0.370065,   0.610512,  -0.568368, 
17076,  -8.997567,  -3.734401,  -0.193140,  -0.439492,  -0.268492,  34.116020,   0.388200,   0.340237,  -0.917082, -30.000000, -412.500000, -427.500000,  67.280080, -92.874696, -178.135872,   0.410688,   0.371894,   0.609384,  -0.567116, 
17077,  -9.051500,  -3.704905,  -0.189588,  -0.362010,  -0.340689,  34.142668,   0.382045,   0.334898,  -0.917011, -33.000000, -414.000000, -427.500000,  67.623992, -92.909432, -178.169056,   0.412428,   0.373686,   0.608270,  -0.565875, 
17078,  -9.052165,  -3.630765,  -0.193477,  -0.586184,  -0.320966,  34.226612,   0.375378,   0.327116,  -0.903328, -36.000000, -415.500000, -423.000000,  67.968984, -92.946288, -178.204032,   0.414165,   0.375474,   0.607140,  -0.564614, 
17079,  -9.035424,  -3.575769,  -0.180462,  -0.445480,  -0.301276,  34.080560,   0.371388,   0.310552,  -0.914389, -37.500000, -421.500000, -426.000000,  68.314024, -92.982760, -178.238592,   0.415904,   0.377260,   0.606009,  -0.563355, 
17080,  -9.073148,  -3.530190,  -0.210089,  -0.430083,  -0.252712,  33.724776,   0.377338,   0.309463,  -0.929227, -34.500000, -423.000000, -430.500000,  68.655672, -93.020528, -178.275088,   0.417622,   0.379033,   0.604887,  -0.562111, 
17081,  -9.109849,  -3.437855,  -0.174628,  -0.520774,  -0.296150,  33.499630,   0.382588,   0.302309,  -0.935568, -31.500000, -426.000000, -432.000000,  68.996936, -93.059744, -178.312816,   0.419335,   0.380800,   0.603762,  -0.560861, 
17082,  -9.118783,  -3.403606,  -0.177294,  -0.482186,  -0.379137,  33.330318,   0.375750,   0.293712,  -0.917347, -34.500000, -427.500000, -426.000000,  69.337776, -93.095432, -178.346432,   0.421045,   0.382544,   0.602616,  -0.559603, 
17083,  -9.123129,  -3.348459,  -0.199321,  -0.535369,  -0.330778,  32.903180,   0.369612,   0.291181,  -0.907624, -37.500000, -427.500000, -423.000000,  69.671848, -93.135984, -178.385488,   0.422712,   0.384262,   0.601500,  -0.558365, 
17084,  -9.145197,  -3.293001,  -0.173284,  -0.523000,  -0.321418,  32.417092,   0.378119,   0.288914,  -0.913711, -33.000000, -429.000000, -424.500000,  70.002448, -93.174568, -178.422048,   0.424368,   0.385957,   0.600391,  -0.557142, 
17085,  -9.143958,  -3.226050,  -0.164246,  -0.503145,  -0.287180,  32.161664,   0.380829,   0.285745,  -0.919150, -31.500000, -430.500000, -426.000000,  70.332336, -93.216320, -178.461808,   0.426017,   0.387649,   0.599287,  -0.555918, 
17086,  -9.175327,  -3.226655,  -0.194119,  -0.384600,  -0.306503,  31.914110,   0.365418,   0.268189,  -0.933453, -39.000000, -436.500000, -430.500000,  70.653240, -93.260680, -178.504496,   0.427603,   0.389289,   0.598197,  -0.554707, 
17087,  -9.199495,  -3.155424,  -0.171956,  -0.448859,  -0.289938,  31.643906,   0.367445,   0.261761,  -0.920742, -37.500000, -438.000000, -426.000000,  70.972368, -93.299576, -178.542224,   0.429187,   0.390912,   0.597102,  -0.553514, 
17088,  -9.230910,  -3.048040,  -0.154871,  -0.486652,  -0.300166,  31.364808,   0.376514,   0.270358,  -0.911484, -33.000000, -435.000000, -423.000000,  71.297528, -93.337624, -178.578624,   0.430808,   0.392560,   0.595983,  -0.552301, 
17089,  -9.261785,  -3.061112,  -0.190717,  -0.334083,  -0.356252,  31.094734,   0.379754,   0.272438,  -0.920883, -31.500000, -435.000000, -426.000000,  71.614704, -93.379696, -178.619760,   0.432379,   0.394174,   0.594893,  -0.551114, 
17090,  -9.275435,  -2.998152,  -0.192349,  -0.563293,  -0.329471,  30.815154,   0.378132,   0.251075,  -0.928308, -31.500000, -442.500000, -427.500000,  71.927496, -93.430216, -178.668384,   0.433913,   0.395763,   0.593817,  -0.549915, 
17091,  -9.321843,  -2.918023,  -0.174804,  -0.394295,  -0.309850,  30.862818,   0.373800,   0.232882,  -0.930294, -33.000000, -448.500000, -427.500000,  72.243912, -93.478000, -178.713872,   0.435469,   0.397357,   0.592717,  -0.548702, 
17092,  -9.356688,  -2.938163,  -0.178750,  -0.365518,  -0.239092,  31.184470,   0.368037,   0.237592,  -0.910341, -36.000000, -445.500000, -421.500000,  72.558520, -93.526704, -178.761536,   0.437010,   0.398948,   0.591619,  -0.547502, 
17093,  -9.375574,  -2.870154,  -0.165271,  -0.401389,  -0.325984,  31.574158,   0.367866,   0.236777,  -0.905803, -36.000000, -445.500000, -420.000000,  72.873512, -93.576264, -178.810304,   0.438554,   0.400540,   0.590517,  -0.546303, 
17094,  -9.362548,  -2.792188,  -0.173973,  -0.572990,  -0.261863,  31.860610,   0.367662,   0.230350,  -0.920571, -36.000000, -448.500000, -424.500000,  73.196408, -93.626928, -178.859120,   0.440140,   0.402162,   0.589385,  -0.545068, 
17095,  -9.322724,  -2.731501,  -0.164192,  -0.452747,  -0.289708,  31.687380,   0.366570,   0.214237,  -0.931956, -36.000000, -454.500000, -427.500000,  73.519256, -93.679088, -178.909184,   0.441717,   0.403772,   0.588237,  -0.543818, 
17096,  -9.345840,  -2.700048,  -0.185589,  -0.452973,  -0.353177,  31.451266,   0.378537,   0.223285,  -0.923022, -30.000000, -451.500000, -424.500000,  73.837264, -93.740272, -178.968592,   0.443259,   0.405368,   0.587115,  -0.542579, 
17097,  -9.364670,  -2.614326,  -0.163835,  -0.512055,  -0.310377,  31.094558,   0.376373,   0.234511,  -0.911890, -31.500000, -447.000000, -421.500000,  74.153360, -93.794968, -179.021440,   0.444803,   0.406945,   0.585990,  -0.541357, 
17098,  -9.448373,  -2.580294,  -0.169157,  -0.313567,  -0.249698,  30.871544,   0.367458,   0.223922,  -0.935338, -36.000000, -451.500000, -429.000000,  74.468984, -93.856936, -179.081728,   0.446338,   0.408526,   0.584872,  -0.540132, 
17099,  -9.407461,  -2.555036,  -0.175917,  -0.451383,  -0.293915,  30.860540,   0.364185,   0.216229,  -0.945244, -37.500000, -454.500000, -432.000000,  74.778960, -93.920568, -179.144032,   0.447832,   0.410071,   0.583759,  -0.538915, 
17100,  -9.376537,  -2.474228,  -0.162647,  -0.484687,  -0.232893,  30.600166,   0.360603,   0.212519,  -0.926770, -39.000000, -454.500000, -426.000000,  75.088160, -93.990808, -179.212208,   0.449319,   0.411610,   0.582652,  -0.537691, 
17101,  -9.412713,  -2.413778,  -0.178220,  -0.587161,  -0.261919,  30.093752,   0.370419,   0.194954,  -0.921301, -33.000000, -460.500000, -423.000000,  75.397056, -94.060472, -179.279552,   0.450809,   0.413144,   0.581543,  -0.536470, 
17102,  -9.397504,  -2.361265,  -0.168038,  -0.423263,  -0.273751,  29.590576,   0.384551,   0.192776,  -0.923499, -25.500000, -462.000000, -423.000000,  75.701952, -94.133080, -179.350448,   0.452277,   0.414661,   0.580449,  -0.535268, 
17103,  -9.412811,  -2.299764,  -0.158078,  -0.447461,  -0.205181,  29.069354,   0.385234,   0.196034,  -0.941648, -25.500000, -462.000000, -429.000000,  76.001560, -94.201832, -179.418112,   0.453720,   0.416147,   0.579362,  -0.534091, 
17104,  -9.443200,  -2.285415,  -0.181311,  -0.531658,  -0.164316,  28.320702,   0.373113,   0.188978,  -0.936393, -31.500000, -463.500000, -427.500000,  76.290936, -94.284976, -179.499088,   0.455092,   0.417579,   0.578312,  -0.532919, 
17105,  -9.442457,  -2.248211,  -0.170067,  -0.420928,  -0.317619,  27.962374,   0.369310,   0.176035,  -0.942338, -33.000000, -468.000000, -429.000000,  76.574640, -94.359672, -179.572256,   0.456444,   0.418976,   0.577271,  -0.531783, 
17106,  -9.491737,  -2.158780,  -0.169783,  -0.471433,  -0.247308,  27.771606,   0.371491,   0.167615,  -0.943818, -31.500000, -471.000000, -429.000000,  76.859512, -94.439560, -179.650272,   0.457801,   0.420378,   0.576228,  -0.530639, 
17107,  -9.497034,  -2.149872,  -0.181620,  -0.411021,  -0.239211,  27.641868,   0.368748,   0.165172,  -0.957684, -33.000000, -472.500000, -433.500000,  77.140072, -94.520464, -179.729008,   0.459142,   0.421757,   0.575202,  -0.529513, 
17108,  -9.363626,  -2.095420,  -0.200654,  -0.512657,  -0.234158,  26.840168,   0.368594,   0.167164,  -0.943493, -33.000000, -471.000000, -429.000000,  77.412248, -94.618448, -179.824896,   0.460425,   0.423108,   0.574217,  -0.528401, 
17109,  -9.515898,  -2.045297,  -0.129755,  -0.425244,  -0.202442,  26.119350,   0.372989,   0.155938,  -0.927147, -30.000000, -474.000000, -423.000000,  77.682720, -94.681032, -179.885680,   0.461723,   0.424405,   0.573190,  -0.527324, 
17110,  -9.529173,  -1.983704,  -0.173484,  -0.330800,  -0.193448,  26.181466,   0.366646,   0.146978,  -0.932191, -33.000000, -477.000000, -424.500000,  77.951272, -94.780592, -179.983824,   0.462982,   0.425729,   0.572201,  -0.526224, 
17111,  -9.626580,  -1.991702,  -0.109297,  -0.348817,  -0.254975,  26.319428,   0.361005,   0.144083,  -0.945733, -36.000000, -478.500000, -429.000000,  78.216184, -94.841424, 179.956000,  -0.464253,  -0.426998,  -0.571183,   0.525178, 
17112,  -9.610950,  -1.964367,  -0.224834,  -0.393556,  -0.304314,  27.092616,   0.363544,   0.140099,  -0.946635, -34.500000, -480.000000, -429.000000,  78.480448, -94.961048, 179.837184,  -0.465474,  -0.428313,  -0.570214,   0.524081, 
17113,  -9.623933,  -1.832739,  -0.115661,  -0.590725,  -0.204062,  27.475156,   0.370041,   0.147066,  -0.955780, -31.500000, -478.500000, -432.000000,  78.763328, -95.054272, 179.746768,  -0.466824,  -0.429675,  -0.569150,   0.522935, 
17114,  -9.504930,  -1.814207,  -0.172007,  -0.255866,  -0.241374,  27.286720,   0.372768,   0.146704,  -0.951567, -30.000000, -478.500000, -430.500000,  79.042216, -95.159560, 179.643152,  -0.468130,  -0.431019,  -0.568089,   0.521789, 
17115,  -9.566024,  -1.807459,  -0.171868,  -0.392553,  -0.234074,  26.911118,   0.365383,   0.130051,  -0.939039, -33.000000, -483.000000, -426.000000,  79.308544, -95.274168, 179.529120,  -0.469367,  -0.432316,  -0.567079,   0.520691, 
17116,  -9.550270,  -1.645045,  -0.156295,  -0.546432,  -0.245015,  26.439268,   0.365025,   0.125615,  -0.939616, -33.000000, -484.500000, -426.000000,  79.588688, -95.396216, 179.410224,  -0.470684,  -0.433665,  -0.566024,   0.519531, 
17117,  -9.532625,  -1.688891,  -0.131997,  -0.202005,  -0.257871,  25.816220,   0.358341,   0.115027,  -0.935586, -36.000000, -487.500000, -424.500000,  79.855944, -95.496920, 179.310752,  -0.471950,  -0.434944,  -0.564996,   0.518449, 
17118,  -9.558414,  -1.642549,  -0.209469,  -0.527087,  -0.233417,  25.229974,   0.363232,   0.103438,  -0.942504, -33.000000, -492.000000, -426.000000,  80.112032, -95.637368, 179.171024,  -0.473134,  -0.436203,  -0.564038,   0.517386, 
17119,  -9.612268,  -1.552671,  -0.122465,  -0.448851,  -0.209028,  24.813532,   0.365772,   0.099454,  -0.943405, -31.500000, -493.500000, -426.000000,  80.373384, -95.756128, 179.054688,  -0.474357,  -0.437441,  -0.563025,   0.516300, 
17120,  -9.602557,  -1.603367,  -0.210362,  -0.302092,  -0.184262,  24.502284,   0.361799,   0.085696,  -0.944814, -33.000000, -498.000000, -426.000000,  80.617792, -95.894248, 178.917472,  -0.475480,  -0.438621,  -0.562085,   0.515274, 
17121,  -9.658129,  -1.509320,  -0.136351,  -0.551468,  -0.228450,  24.446532,   0.370697,   0.093478,  -0.931018, -28.500000, -495.000000, -421.500000,  80.863608, -96.039256, 178.774624,  -0.476617,  -0.439801,  -0.561144,   0.514238, 
17122,  -9.656885,  -1.437032,  -0.137473,  -0.382067,  -0.184609,  24.397924,   0.371756,   0.103978,  -0.938938, -28.500000, -492.000000, -424.500000,  81.117720, -96.171152, 178.645376,  -0.477812,  -0.441002,  -0.560159,   0.513185, 
17123,  -9.647660,  -1.477403,  -0.162809,  -0.225759,  -0.282338,  24.492674,   0.368653,   0.097099,  -0.953382, -30.000000, -495.000000, -429.000000,  81.361072, -96.317200, 178.499696,  -0.478937,  -0.442169,  -0.559211,   0.512175, 
17124,  -9.651159,  -1.368226,  -0.147351,  -0.572618,  -0.160575,  24.373042,   0.365039,   0.087776,  -0.954213, -31.500000, -498.000000, -429.000000,  81.606800, -96.477472, 178.341264,  -0.480073,  -0.443340,  -0.558257,   0.511141, 
17125,  -9.690094,  -1.311239,  -0.129963,  -0.370865,  -0.211372,  24.387904,   0.369200,   0.105155,  -0.947689, -30.000000, -492.000000, -427.500000,  81.863440, -96.635432, 178.185568,  -0.481264,  -0.444540,  -0.557240,   0.510063, 
17126,  -9.728326,  -1.378888,  -0.177310,  -0.206890,  -0.167534,  24.725070,   0.363232,   0.103438,  -0.942504, -33.000000, -492.000000, -426.000000,  82.106216, -96.810408, 178.010768,  -0.482375,  -0.445697,  -0.556282,   0.509043, 
17127,  -9.797182,  -1.307189,  -0.167938,  -0.501288,  -0.178592,  25.527136,   0.356361,   0.089228,  -0.943588, -36.000000, -496.500000, -426.000000,  82.353216, -97.021008, 177.801616,  -0.483504,  -0.446885,  -0.555326,   0.507989, 
17128,  -9.823584,  -1.233578,  -0.149593,  -0.463069,  -0.259651,  26.708752,   0.360910,   0.076010,  -0.941431, -33.000000, -501.000000, -424.500000,  82.616936, -97.237168, 177.587856,  -0.484718,  -0.448128,  -0.554287,   0.506868, 
17129,  -9.886266,  -1.282564,  -0.186881,  -0.309390,  -0.271749,  28.286426,   0.366315,   0.066865,  -0.961962, -30.000000, -505.500000, -430.500000,  82.886440, -97.483904, 177.342416,  -0.485953,  -0.449414,  -0.553230,   0.505724, 
17130,  -9.906567,  -1.217467,  -0.158070,  -0.552825,  -0.233444,  30.266762,   0.358338,   0.074381,  -0.959835, -34.500000, -502.500000, -430.500000,  83.169216, -97.766360, 177.061680,  -0.487238,  -0.450752,  -0.552108,   0.504508, 
17131,  -9.962958,  -1.129865,  -0.147807,  -0.454677,  -0.320420,  32.644138,   0.354773,   0.073478,  -0.931708, -36.000000, -501.000000, -421.500000,  83.481944, -98.087248, 176.743184,  -0.488665,  -0.452213,  -0.550853,   0.503164, 
17132,  -9.880280,  -1.083618,  -0.163553,  -0.584009,  -0.297464,  34.767604,   0.356749,   0.058631,  -0.947955, -34.500000, -507.000000, -426.000000,  83.812816, -98.484160, 176.348128,  -0.490171,  -0.453782,  -0.549538,   0.501740, 
17133,  -9.771791,  -1.024252,  -0.158114,  -0.649180,  -0.321090,  35.922992,   0.362308,   0.047494,  -0.982675, -31.500000, -513.000000, -436.500000,  84.159272, -98.959608, 175.875504,  -0.491743,  -0.455422,  -0.548162,   0.500232, 
17134,  -9.603810,  -0.884595,  -0.170799,  -0.700702,  -0.314867,  35.957344,   0.361437,   0.040614,  -0.969640, -31.500000, -514.500000, -432.000000,  84.518528, -99.515512, 175.323024,  -0.493367,  -0.457112,  -0.546723,   0.498654, 
17135,  -9.670278,  -0.830318,  -0.119454,  -0.587771,  -0.361904,  34.922108,   0.354223,   0.024776,  -0.961650, -34.500000, -519.000000, -429.000000,  84.873256, -100.105960, 174.735680,  -0.494978,  -0.458765,  -0.545280,   0.497105, 
17136,  -9.633366,  -0.759914,  -0.208705,  -0.515607,  -0.378192,  34.472952,   0.361266,   0.039800,  -0.965103, -31.500000, -514.500000, -430.500000,  85.220744, -100.828144, 174.016176,  -0.496536,  -0.460408,  -0.543876,   0.495558, 
17137,  -9.866991,  -0.744422,  -0.121452,  -0.560316,  -0.284686,  34.375492,   0.355470,   0.038897,  -0.964455, -34.500000, -514.500000, -430.500000,  85.560416, -101.538688, 173.308048,  -0.498095,  -0.461981,  -0.542474,   0.494088, 
17138,  -9.779278,  -0.729428,  -0.184067,  -0.501515,  -0.374604,  35.184888,   0.353849,   0.017534,  -0.971880, -34.500000, -522.000000, -432.000000,  85.898024, -102.469936, 172.378384,  -0.499609,  -0.463583,  -0.541091,   0.492580, 
17139,  -9.749672,  -0.654487,  -0.119926,  -0.657234,  -0.396050,  35.173124,   0.358352,   0.036542,  -0.974431, -33.000000, -516.000000, -433.500000,  86.238184, -103.516784, 171.333888,  -0.501146,  -0.465167,  -0.539667,   0.491061, 
17140,  -9.811069,  -0.567047,  -0.152718,  -0.548413,  -0.387403,  35.756600,   0.354599,   0.032018,  -0.951420, -34.500000, -516.000000, -426.000000,  86.583448, -104.812040, 170.041568,  -0.502714,  -0.466786,  -0.538223,   0.489508, 
17141,  -9.854865,  -0.508047,  -0.148349,  -0.590686,  -0.352913,  36.688932,   0.349737,   0.008575,  -0.949445, -36.000000, -523.500000, -424.500000,  86.933760, -106.452680, 168.403184,  -0.504304,  -0.468442,  -0.536744,   0.487915, 
17142,  -9.927907,  -0.490424,  -0.144094,  -0.469345,  -0.486568,  38.061028,   0.354783,  -0.005005,  -0.970554, -33.000000, -529.500000, -430.500000,  87.286688, -108.514152, 166.343696,  -0.505924,  -0.470117,  -0.535232,   0.486306, 
17143,  -9.966574,  -0.448478,  -0.160354,  -0.691329,  -0.406951,  40.011388,   0.357681,  -0.004554,  -0.970878, -31.500000, -529.500000, -430.500000,  87.646568, -111.374120, 163.485472,  -0.507570,  -0.471853,  -0.533660,   0.484609, 
17144,  -9.938334,  -0.357980,  -0.161393,  -0.811680,  -0.482101,  41.894364,   0.345356,  -0.018037,  -0.980389, -37.500000, -534.000000, -433.500000,  88.017416, -115.527400, 159.336112,  -0.509313,  -0.473679,  -0.532013,   0.482806, 
17145,  -9.839902,  -0.285312,  -0.155167,  -0.801626,  -0.567680,  43.340540,   0.339372,  -0.022561,  -0.984856, -40.500000, -535.500000, -435.000000,  88.389416, -121.844800, 153.023344,  -0.511140,  -0.475578,  -0.530284,   0.480919, 
17146,  -9.880931,  -0.161269,  -0.142995,  -0.915190,  -0.509409,  44.252204,   0.341928,  -0.023739,  -0.976105, -39.000000, -535.500000, -432.000000,  88.743056, -132.126936, 142.746016,  -0.513034,  -0.477531,  -0.528480,   0.478967, 
17147,  -9.886395,  -0.123792,  -0.158355,  -0.830656,  -0.530037,  45.481816,   0.334543,  -0.040392,  -0.963577, -42.000000, -540.000000, -427.500000,  89.029856, -149.762416, 125.115352,  -0.514937,  -0.479513,  -0.526634,   0.476957, 
17148,  -9.799821,  -0.050722,  -0.165922,  -0.835071,  -0.505891,  46.535248,   0.330382,  -0.057771,  -0.970101, -43.500000, -546.000000, -429.000000,  89.166088, -177.648592,  97.233256,  -0.516874,  -0.481539,  -0.524733,   0.474896, 
17149,  -9.736806,   0.058210,  -0.164197,  -1.098793,  -0.523460,  46.653872,   0.339060,  -0.059223,  -0.980725, -39.000000, -547.500000, -432.000000,  89.065608, 152.588672,  67.476136,   0.518853,   0.483609,   0.522803,  -0.472775, 
17150,  -9.676593,   0.141226,  -0.130643,  -1.330068,  -0.524711,  46.303188,   0.339060,  -0.059223,  -0.980725, -39.000000, -547.500000, -432.000000,  88.784216, 132.577592,  47.473132,   0.520846,   0.485646,   0.520852,  -0.470642, 
17151,  -9.658017,   0.234567,  -0.156998,  -1.345481,  -0.475104,  45.555448,   0.333981,  -0.051255,  -0.978922, -42.000000, -544.500000, -432.000000,  88.417488, 121.042064,  35.946692,   0.522817,   0.487655,   0.518922,  -0.468518, 
17152,  -9.728837,   0.354171,  -0.129117,  -1.388125,  -0.540072,  45.005532,   0.341803,  -0.056779,  -0.966859, -37.500000, -546.000000, -427.500000,  88.013872, 114.049664,  28.963998,   0.524762,   0.489633,   0.516988,  -0.466389, 
17153,  -9.622961,   0.757481,   0.118635,  -1.069833,  -0.469217,  45.088632,   0.340353,  -0.077328,  -0.978822, -37.500000, -553.500000, -430.500000,  87.570136, 108.876952,  23.800830,   0.526895,   0.491666,   0.514862,  -0.464202, 
17154,  -9.672427,   0.436779,  -0.185886,  -0.760967,  -0.606588,  44.454276,   0.338373,  -0.103126,  -0.986824, -37.500000, -562.500000, -432.000000,  87.149064, 105.972320,  20.896824,   0.528709,   0.493629,   0.512976,  -0.462163, 
17155,  -9.675176,   0.452816,  -0.223666,  -0.433892,  -0.655523,  43.725960,   0.329491,  -0.108102,  -0.990967, -42.000000, -564.000000, -433.500000,  86.723984, 103.742048,  18.669098,   0.530528,   0.495541,   0.511057,  -0.460116, 
17156,  -9.670228,   0.621163,  -0.196957,  -0.310926,  -0.545102,  42.754548,   0.331814,  -0.080675,  -0.992039, -42.000000, -555.000000, -435.000000,  86.288448, 101.946376,  16.875704,   0.532399,   0.497479,   0.509094,  -0.458056, 
17157,  -9.686746,   0.733962,  -0.123823,  -0.473835,  -0.627991,  42.124668,   0.335475,  -0.103578,  -0.986500, -39.000000, -562.500000, -432.000000,  85.866816, 100.590624,  15.522012,   0.534186,   0.499340,   0.507204,  -0.456066, 
17158,  -9.645253,   0.826428,  -0.046729,  -0.522646,  -0.480404,  41.387004,   0.326080,  -0.110997,  -0.977031, -43.500000, -564.000000, -429.000000,  85.452696,  99.503296,  14.436304,   0.535912,   0.501140,   0.505332,  -0.454104, 
17159,  -9.488610,   1.005985,  -0.023603,  -0.711057,  -0.472368,  41.132692,   0.326080,  -0.110997,  -0.977031, -43.500000, -564.000000, -429.000000,  85.033360,  98.594248,  13.528761,   0.537653,   0.502959,   0.503444,  -0.452125, 
17160,  -9.453543,   0.990054,  -0.113058,  -0.594889,  -0.404113,  38.863712,   0.324084,  -0.139602,  -0.994686, -43.500000, -574.500000, -433.500000,  84.622184,  97.857352,  12.794032,   0.539349,   0.504739,   0.501605,  -0.450178, 
17161,  -9.545339,   0.956772,  -0.128519,  -0.488365,  -0.387577,  36.915720,   0.318459,  -0.139691,  -0.998575, -46.500000, -574.500000, -435.000000,  84.242320,  97.272152,  12.210316,   0.540901,   0.506374,   0.499900,  -0.448378, 
17162,  -9.598414,   1.079996,  -0.179585,  -0.365688,  -0.377097,  35.533488,   0.312867,  -0.134166,  -0.983160, -49.500000, -571.500000, -430.500000,  83.870368,  96.775600,  11.714917,   0.542401,   0.507964,   0.498222,  -0.446606, 
17163,  -9.545163,   1.111585,  -0.122510,  -0.397269,  -0.321390,  34.228688,   0.317587,  -0.146569,  -0.985540, -46.500000, -576.000000, -430.500000,  83.512240,  96.338736,  11.279312,   0.543856,   0.509491,   0.496605,  -0.444909, 
17164,  -9.672316,   1.174223,  -0.162366,  -0.370963,  -0.414796,  33.365722,   0.319923,  -0.156981,  -1.001209, -45.000000, -580.500000, -435.000000,  83.169672,  95.967672,  10.909597,   0.545237,   0.510944,   0.495056,  -0.443279, 
17165,  -9.270585,   1.407615,  -0.070098,  -0.402462,  -0.386840,  31.851562,   0.313239,  -0.167570,  -0.997179, -48.000000, -583.500000, -433.500000,  82.817936,  95.637072,  10.580351,   0.546646,   0.512441,   0.493474,  -0.441600, 
17166,  -9.817783,   1.165780,  -0.071981,  -0.362808,  -0.265787,  29.434730,   0.316699,  -0.156255,  -0.982157, -46.500000, -579.000000, -429.000000,  82.524624,  95.351496,  10.296070,   0.547823,   0.513654,   0.492118,  -0.440202, 
17167,  -9.571157,   1.436914,  -0.235204,  -0.399187,  -0.387777,  29.919530,   0.317213,  -0.153811,  -0.995770, -46.500000, -579.000000, -433.500000,  82.215584,  95.162152,  10.107865,   0.549009,   0.514983,   0.490752,  -0.438690, 
17168,  -9.552649,   1.419456,  -0.102881,  -0.428882,  -0.310386,  27.631702,   0.310495,  -0.170013,  -1.011045, -49.500000, -585.000000, -438.000000,  81.900328,  94.875576,   9.822914,   0.550299,   0.516282,   0.489291,  -0.437206, 
17169,  -9.447744,   1.421992,  -0.106228,  -0.662444,  -0.175220,  24.367926,   0.312864,  -0.174811,  -1.007409, -48.000000, -586.500000, -436.500000,  81.627168,  94.683240,   9.631612,   0.551380,   0.517422,   0.488045,  -0.435896, 
17170,  -9.685734,   1.561155,  -0.063055,  -0.524903,  -0.148486,  24.439540,   0.306522,  -0.183771,  -1.012453, -51.000000, -589.500000, -438.000000,  81.391280,  94.503256,   9.453159,   0.552325,   0.518384,   0.486947,  -0.434770, 
17171,  -9.447567,   1.433859,  -0.132776,  -0.245357,  -0.108792,  21.875960,   0.297503,  -0.183948,  -0.992754, -55.500000, -588.000000, -432.000000,  81.130096,  94.353888,   9.305719,   0.553341,   0.519468,   0.485761,  -0.433497, 
17172,  -9.362363,   1.418482,  -0.311562,  -0.030770,  -0.209834,  21.345648,   0.301118,  -0.174625,  -0.991923, -54.000000, -585.000000, -432.000000,  80.915960,  94.276960,   9.229130,   0.554139,   0.520386,   0.484813,  -0.432437, 
17173,  -9.447877,   1.762921,  -0.084161,  -0.072722,  -0.258604,  20.482728,   0.303453,  -0.185037,  -1.007592, -52.500000, -589.500000, -436.500000,  80.695320,  94.111288,   9.064658,   0.555033,   0.521269,   0.483767,  -0.431394, 
17174, -10.027755,   1.661672,   0.015316,  -0.368334,  -0.200844,  22.960832,   0.293717,  -0.194085,  -0.989047, -57.000000, -591.000000, -430.500000,  80.517016,  93.988656,   8.942525,   0.555748,   0.521988,   0.482924,  -0.430549, 
17175,  -9.681234,   1.828037,   0.045750,  -0.417367,  -0.328603,  25.803888,   0.296598,  -0.196440,  -0.999024, -55.500000, -592.500000, -433.500000,  80.281048,  93.907072,   8.861118,   0.556633,   0.522990,   0.481868,  -0.429387, 
17176,  -9.758191,   1.776355,   0.041010,  -0.512158,  -0.171530,  26.910912,   0.306164,  -0.188207,  -1.013031, -51.000000, -591.000000, -438.000000,  80.025024,  93.744168,   8.699457,   0.557656,   0.524014,   0.480655,  -0.428169, 
17177,  -9.658450,   1.687259,  -0.107553,  -0.534359,  -0.267792,  28.185386,   0.303453,  -0.185037,  -1.007592, -52.500000, -589.500000, -436.500000,  79.761464,  93.670632,   8.625706,   0.558624,   0.525126,   0.479467,  -0.426858, 
17178,  -9.661603,   1.811640,  -0.077459,  -0.439163,  -0.305141,  28.658630,   0.305275,  -0.197892,  -1.009648, -51.000000, -594.000000, -436.500000,  79.479952,  93.519568,   8.475887,   0.559732,   0.526256,   0.478140,  -0.425507, 
17179,  -9.604889,   1.756577,  -0.214123,  -0.307372,  -0.319172,  29.068872,   0.306960,  -0.205948,  -0.987862, -49.500000, -595.500000, -429.000000,  79.193056,  93.426000,   8.382153,   0.560805,   0.527448,   0.476825,  -0.424096, 
17180,  -9.663781,   1.806435,  -0.133544,  -0.286105,  -0.300837,  29.574200,   0.301911,  -0.233013,  -0.991003, -51.000000, -604.500000, -429.000000,  78.905712,  93.296904,   8.254276,   0.561920,   0.528603,   0.475476,  -0.422705, 
17181,  -9.693063,   1.881260,  -0.125515,  -0.278916,  -0.280247,  30.516504,   0.287934,  -0.232827,  -1.002995, -58.500000, -604.500000, -433.500000,  78.610928,  93.184592,   8.142900,   0.563043,   0.529794,   0.474098,  -0.421264, 
17182,  -9.739072,   1.901176,  -0.072073,  -0.283768,  -0.483242,  32.190570,   0.282497,  -0.229294,  -1.001770, -61.500000, -603.000000, -433.500000,  78.310856,  93.060760,   8.020316,   0.564193,   0.530984,   0.472674,  -0.419803, 
17183,  -9.847403,   1.981231,  -0.162269,  -0.444687,  -0.214094,  34.120800,   0.291362,  -0.227125,  -1.007280, -57.000000, -603.000000, -435.000000,  77.998568,  92.975232,   7.935690,   0.565352,   0.532255,   0.471228,  -0.418254, 
17184,  -9.922051,   1.999378,  -0.048583,  -0.431885,  -0.614851,  37.730376,   0.286875,  -0.243327,  -0.995076, -58.500000, -607.500000, -430.500000,  77.664112,  92.850400,   7.812093,   0.566635,   0.533584,   0.469643,  -0.416627, 
17185,  -9.843172,   2.047240,  -0.077209,  -0.588735,  -0.438616,  41.216828,   0.277685,  -0.244318,  -0.970839, -63.000000, -606.000000, -423.000000,  77.296864,  92.727184,   7.690585,   0.568031,   0.535041,   0.467906,  -0.414829, 
17186,  -9.767530,   2.183778,  -0.082716,  -0.546771,  -0.642257,  44.534328,   0.280240,  -0.245496,  -0.962088, -61.500000, -606.000000, -420.000000,  76.885712,  92.614384,   7.578879,   0.569550,   0.536670,   0.465957,  -0.412788, 
17187,  -9.599433,   2.268011,  -0.126651,  -0.584075,  -0.560748,  46.745912,   0.285458,  -0.258262,  -0.987733, -58.500000, -612.000000, -427.500000,  76.440424,  92.489952,   7.455952,   0.571208,   0.538423,   0.463838,  -0.410586, 
17188,  -9.423923,   2.360213,  -0.059379,  -0.584648,  -0.521295,  47.312296,   0.285254,  -0.264690,  -1.002501, -58.500000, -615.000000, -432.000000,  75.966512,  92.364496,   7.332896,   0.572979,   0.540286,   0.461586,  -0.408242, 
17189,  -9.314603,   2.440200,  -0.128083,  -0.584688,  -0.558858,  47.117268,   0.272603,  -0.276996,  -0.993284, -64.500000, -618.000000, -429.000000,  75.492168,  92.249776,   7.220211,   0.574720,   0.542130,   0.459312,  -0.405877, 
17190,  -9.289546,   2.613191,  -0.065287,  -0.556908,  -0.545789,  46.006724,   0.267336,  -0.272649,  -0.996597, -67.500000, -616.500000, -430.500000,  75.009912,  92.146152,   7.118554,   0.576482,   0.544010,   0.457007,  -0.403466, 
17191,  -9.214700,   2.658703,  -0.057419,  -0.603123,  -0.515539,  44.742892,   0.272415,  -0.280617,  -0.998400, -64.500000, -619.500000, -430.500000,  74.542792,  92.036360,   7.011138,   0.578209,   0.545811,   0.454757,  -0.401146, 
17192,  -9.258887,   2.725983,  -0.090949,  -0.536122,  -0.593638,  43.604092,   0.265014,  -0.300076,  -0.995524, -67.500000, -625.500000, -429.000000,  74.090096,  91.959000,   6.934899,   0.579818,   0.547558,   0.452576,  -0.398856, 
17193,  -9.272200,   2.791779,  -0.029429,  -0.530464,  -0.495322,  42.531580,   0.255570,  -0.315915,  -1.015012, -72.000000, -631.500000, -435.000000,  73.646144,  91.857928,   6.836262,   0.581439,   0.549232,   0.450404,  -0.396637, 
17194,  -9.281814,   2.801739,  -0.103461,  -0.574320,  -0.443153,  41.691704,   0.256425,  -0.311842,  -1.037700, -72.000000, -631.500000, -442.500000,  73.219552,  91.785824,   6.765376,   0.582966,   0.550869,   0.448341,  -0.394487, 
17195,  -9.328778,   2.927637,  -0.086939,  -0.520993,  -0.501009,  41.417600,   0.249741,  -0.322431,  -1.033669, -75.000000, -634.500000, -441.000000,  72.799576,  91.717504,   6.698816,   0.584452,   0.552459,   0.446295,  -0.392356, 
17196,  -9.360863,   2.956233,  -0.070896,  -0.506660,  -0.540945,  41.734220,   0.252468,  -0.322794,  -1.029456, -73.500000, -634.500000, -439.500000,  72.382088,  91.645424,   6.628299,   0.585934,   0.554026,   0.444247,  -0.390244, 
17197,  -9.344685,   2.952367,  -0.074975,  -0.507255,  -0.471887,  42.485828,   0.254494,  -0.329221,  -1.016745, -72.000000, -636.000000, -435.000000,  71.970656,  91.583208,   6.567701,   0.587387,   0.555577,   0.442237,  -0.388156, 
17198,  -9.322257,   3.099721,  -0.095888,  -0.474751,  -0.524330,  43.266592,   0.265711,  -0.334657,  -1.028270, -66.000000, -639.000000, -438.000000,  71.546232,  91.526528,   6.512109,   0.588866,   0.557175,   0.440159,  -0.385991, 
17199,  -9.271536,   3.205746,  -0.057470,  -0.587007,  -0.550787,  44.038480,   0.259215,  -0.341625,  -1.019125, -69.000000, -640.500000, -435.000000,  71.106416,  91.462808,   6.450054,   0.590395,   0.558803,   0.437986,  -0.383745, 
17200,  -9.048885,   3.259880,  -0.064823,  -0.595224,  -0.495777,  43.579072,   0.246939,  -0.346689,  -0.999679, -75.000000, -640.500000, -429.000000,  70.655520,  91.401968,   6.391229,   0.591962,   0.560473,   0.435761,  -0.381438, 
17201,  -9.069320,   3.367245,  -0.061623,  -0.492740,  -0.608125,  42.135452,   0.246735,  -0.353116,  -1.014447, -75.000000, -643.500000, -433.500000,  70.213328,  91.348728,   6.339845,   0.593483,   0.562108,   0.433578,  -0.379166, 
17202,  -9.086430,   3.394224,  -0.091569,  -0.496821,  -0.526493,  41.081868,   0.243462,  -0.360810,  -1.024353, -76.500000, -646.500000, -436.500000,  69.787104,  91.298232,   6.290658,   0.594928,   0.563665,   0.431455,  -0.376967, 
17203,  -9.172347,   3.452704,  -0.033481,  -0.458905,  -0.479864,  40.939032,   0.238024,  -0.357277,  -1.023127, -79.500000, -645.000000, -436.500000,  69.377536,  91.246952,   6.241157,   0.596327,   0.565151,   0.429409,  -0.374858, 
17204,  -9.103370,   3.451674,  -0.124115,  -0.531715,  -0.524733,  41.412224,   0.234426,  -0.363793,  -1.014305, -81.000000, -646.500000, -433.500000,  68.969880,  91.208344,   6.203244,   0.597698,   0.566651,   0.427386,  -0.372749, 
17205,  -9.143739,   3.589976,  -0.048190,  -0.559183,  -0.601907,  41.967540,   0.232837,  -0.379544,  -1.002426, -81.000000, -651.000000, -429.000000,  68.549784,  91.158560,   6.155749,   0.599113,   0.568151,   0.425273,  -0.370571, 
17206,  -9.010294,   3.668618,  -0.047142,  -0.498719,  -0.538971,  42.125972,   0.225966,  -0.393753,  -1.003510, -84.000000, -655.500000, -429.000000,  68.124000,  91.114888,   6.113562,   0.600532,   0.569679,   0.423132,  -0.368358, 
17207,  -8.936823,   3.736871,  -0.048318,  -0.463498,  -0.560074,  41.490680,   0.216213,  -0.405607,  -0.994618, -88.500000, -658.500000, -426.000000,  67.694208,  91.064808,   6.065578,   0.601980,   0.571207,   0.420962,  -0.366133, 
17208,  -8.909904,   3.847258,  -0.043321,  -0.504025,  -0.503240,  40.403368,   0.222709,  -0.398640,  -1.003764, -85.500000, -657.000000, -429.000000,  67.268368,  91.022152,   6.024674,   0.603390,   0.572717,   0.418808,  -0.363914, 
17209,  -8.824083,   3.820428,  -0.102897,  -0.476275,  -0.463601,  39.464460,   0.220479,  -0.398640,  -1.031242, -87.000000, -658.500000, -438.000000,  66.860084,  90.992400,   5.996086,   0.604709,   0.574170,   0.416751,  -0.361765, 
17210,  -8.822495,   3.920236,  -0.073899,  -0.518373,  -0.530251,  38.583816,   0.216335,  -0.413212,  -1.028113, -88.500000, -663.000000, -436.500000,  66.458192,  90.952000,   5.958199,   0.606035,   0.575576,   0.414710,  -0.359663, 
17211,  -8.879772,   3.972465,  -0.070749,  -0.397188,  -0.506003,  38.159140,   0.213282,  -0.411672,  -1.013599, -90.000000, -661.500000, -432.000000,  66.066688,  90.910656,   5.918904,   0.607331,   0.576940,   0.412713,  -0.357622, 
17212,  -8.781721,   4.048287,  -0.064655,  -0.473083,  -0.363445,  38.169540,   0.207861,  -0.405333,  -1.002721, -93.000000, -658.500000, -429.000000,  65.678148,  90.879368,   5.888821,   0.608574,   0.578289,   0.410727,  -0.355573, 
17213,  -8.676393,   4.073407,  -0.138214,  -0.507413,  -0.427591,  37.785088,   0.209871,  -0.414567,  -0.999663, -91.500000, -661.500000, -427.500000,  65.288688,  90.859264,   5.869113,   0.609797,   0.579662,   0.408752,  -0.353505, 
17214,  -8.658009,   4.258651,  -0.012245,  -0.410858,  -0.425108,  36.567784,   0.200443,  -0.427599,  -1.009498, -96.000000, -666.000000, -430.500000,  64.890616,  90.825392,   5.837187,   0.611079,   0.581035,   0.406714,  -0.351408, 
17215,  -8.514522,   4.283534,  -0.041257,  -0.441239,  -0.409769,  34.322364,   0.196641,  -0.440542,  -1.015444, -97.500000, -670.500000, -432.000000,  64.504488,  90.802008,   5.814682,   0.612291,   0.582374,   0.404741,  -0.349357, 
17216,  -8.493013,   4.342637,  -0.092991,  -0.452828,  -0.344458,  31.416612,   0.204789,  -0.447244,  -1.022109, -93.000000, -673.500000, -433.500000,  64.142908,  90.781072,   5.794401,   0.613413,   0.583618,   0.402886,  -0.347430, 
17217,  -8.502353,   4.420613,  -0.058188,  -0.301602,  -0.324305,  28.450938,   0.192838,  -0.453486,  -1.021390, -99.000000, -675.000000, -433.500000,  63.805320,  90.756968,   5.771789,   0.614473,   0.584767,   0.401147,  -0.345635, 
17218,  -8.477160,   4.404011,  -0.082798,  -0.278617,  -0.195601,  25.781672,   0.177973,  -0.462985,  -1.030000, -106.500000, -678.000000, -436.500000,  63.506216,  90.742080,   5.757700,   0.615397,   0.585798,   0.399616,  -0.344037, 
17219,  -8.528664,   4.399517,  -0.096169,  -0.326293,  -0.134016,  23.876296,   0.184111,  -0.460453,  -1.039723, -103.500000, -678.000000, -439.500000,  63.243080,  90.728288,   5.744326,   0.616210,   0.586701,   0.398265,  -0.342632, 
17220,  -8.665050,   4.496877,  -0.039283,  -0.317156,  -0.282399,  22.690158,   0.181401,  -0.457284,  -1.034284, -105.000000, -676.500000, -438.000000,  63.000580,  90.708808,   5.726256,   0.616963,   0.587504,   0.397001,  -0.341338, 
17221,  -8.699911,   4.466903,  -0.051367,  -0.299159,  -0.257476,  22.351386,   0.171289,  -0.473574,  -1.025970, -109.500000, -681.000000, -435.000000,  62.774580,  90.695432,   5.713279,   0.617653,   0.588264,   0.395828,  -0.340129, 
17222,  -8.746038,   4.453536,  -0.071195,  -0.333544,  -0.220618,  22.586640,   0.176197,  -0.482357,  -1.023235, -106.500000, -684.000000, -433.500000,  62.558640,  90.685400,   5.703462,   0.618305,   0.588996,   0.394711,  -0.338969, 
17223,  -8.745231,   4.494896,  -0.069980,  -0.335147,  -0.270673,  23.238454,   0.183052,  -0.470953,  -1.031803, -103.500000, -681.000000, -436.500000,  62.339196,  90.675160,   5.693686,   0.618970,   0.589738,   0.393578,  -0.337789, 
17224,  -8.782398,   4.532189,  -0.023609,  -0.405563,  -0.246880,  24.386890,   0.180325,  -0.470590,  -1.036017, -105.000000, -681.000000, -438.000000,  62.116380,  90.657512,   5.677713,   0.619664,   0.590473,   0.392417,  -0.336600, 
17225,  -8.786797,   4.581315,  -0.056067,  -0.305033,  -0.248522,  25.858766,   0.182539,  -0.473397,  -1.018191, -103.500000, -681.000000, -432.000000,  61.884676,  90.647912,   5.668283,   0.620363,   0.591260,   0.391220,  -0.335355, 
17226,  -8.576101,   4.647827,  -0.055632,  -0.341151,  -0.261321,  26.824172,   0.181993,  -0.481453,  -1.023883, -103.500000, -684.000000, -433.500000,  61.622640,  90.633824,   5.655001,   0.621146,   0.592125,   0.389852,  -0.333941, 
17227,  -8.457815,   4.697563,  -0.048225,  -0.392132,  -0.207872,  26.815854,   0.174918,  -0.502091,  -1.039735, -106.500000, -691.500000, -438.000000,  61.346768,  90.611816,   5.635077,   0.621991,   0.593015,   0.388401,  -0.332460, 
17228,  -8.470159,   4.694767,  -0.106745,  -0.314258,  -0.283202,  26.032110,   0.173079,  -0.492042,  -1.047331, -108.000000, -688.500000, -441.000000,  61.075192,  90.600600,   5.624375,   0.622794,   0.593918,   0.386987,  -0.330991, 
17229,  -8.373386,   4.761127,  -0.093585,  -0.303377,  -0.226130,  25.014998,   0.170898,  -0.483623,  -1.045852, -109.500000, -685.500000, -441.000000,  60.802688,  90.585936,   5.610327,   0.623608,   0.594814,   0.385560,  -0.329522, 
17230,  -8.480520,   4.823531,  -0.051849,  -0.326727,  -0.151011,  24.032640,   0.170197,  -0.489687,  -1.037354, -109.500000, -687.000000, -438.000000,  60.548524,  90.571048,   5.596436,   0.624372,   0.595646,   0.384228,  -0.328154, 
17231,  -8.483366,   4.818890,  -0.092005,  -0.325821,  -0.144639,  23.536698,   0.170214,  -0.486881,  -1.027702, -109.500000, -685.500000, -435.000000,  60.306544,  90.563280,   5.588928,   0.625072,   0.596444,   0.382964,  -0.326836, 
17232,  -8.554518,   4.898849,  -0.035235,  -0.369338,  -0.188581,  23.622468,   0.167332,  -0.484526,  -1.017726, -111.000000, -684.000000, -432.000000,  60.072296,  90.550072,   5.576590,   0.625760,   0.597196,   0.381726,  -0.325566, 
17233,  -8.568314,   4.849960,  -0.090256,  -0.318461,  -0.177542,  24.067072,   0.163359,  -0.498283,  -1.019134, -112.500000, -688.500000, -432.000000,  59.842900,  90.544720,   5.571270,   0.626414,   0.597951,   0.380528,  -0.324312, 
17234,  -8.599455,   4.904950,  -0.075959,  -0.255035,  -0.306857,  25.294526,   0.159386,  -0.512041,  -1.020543, -114.000000, -693.000000, -432.000000,  59.609456,  90.531816,   5.558693,   0.627098,   0.598703,   0.379292,  -0.323050, 
17235,  -8.666889,   4.893534,  -0.109256,  -0.307841,  -0.285695,  27.294060,   0.162129,  -0.509598,  -1.006677, -112.500000, -691.500000, -427.500000,  59.370072,  90.527032,   5.553125,   0.627776,   0.599495,   0.378039,  -0.321743, 
17236,  -8.587866,   4.965873,  -0.095765,  -0.360782,  -0.270228,  29.339910,   0.157033,  -0.504436,  -1.014526, -115.500000, -690.000000, -430.500000,  59.107708,  90.515456,   5.541812,   0.628539,   0.600345,   0.376656,  -0.320320, 
17237,  -8.543243,   5.034291,  -0.123583,  -0.305858,  -0.347842,  30.817670,   0.147777,  -0.516654,  -1.028899, -120.000000, -694.500000, -435.000000,  58.817084,  90.513144,   5.538390,   0.629338,   0.601299,   0.375132,  -0.318720, 
17238,  -8.413705,   5.076494,  -0.079179,  -0.402930,  -0.266002,  31.706722,   0.147777,  -0.516654,  -1.028899, -120.000000, -694.500000, -435.000000,  58.511380,  90.501792,   5.527207,   0.630201,   0.602275,   0.373511,  -0.317048, 
17239,  -8.475095,   5.122054,  -0.117704,  -0.403369,  -0.310710,  32.827640,   0.146873,  -0.529146,  -1.035169, -120.000000, -699.000000, -436.500000,  58.196312,  90.497912,   5.522630,   0.631069,   0.603301,   0.371856,  -0.315312, 
17240,  -8.388599,   5.163127,  -0.114080,  -0.445667,  -0.349589,  33.909512,   0.148320,  -0.549243,  -1.047455, -118.500000, -706.500000, -439.500000,  57.869732,  90.487944,   5.512823,   0.631986,   0.604347,   0.370129,  -0.313521, 
17241,  -8.409251,   5.211044,  -0.131316,  -0.434440,  -0.450106,  35.139800,   0.155175,  -0.537840,  -1.056024, -115.500000, -703.500000, -442.500000,  57.531804,  90.483408,   5.507431,   0.632910,   0.605439,   0.368346,  -0.311658, 
17242,  -8.255994,   5.278631,  -0.090456,  -0.473141,  -0.449498,  36.019348,   0.146873,  -0.529146,  -1.035169, -120.000000, -699.000000, -436.500000,  57.174656,  90.469704,   5.494576,   0.633899,   0.606550,   0.366439,  -0.309691, 
17243,  -8.231093,   5.307095,  -0.056152,  -0.418832,  -0.362815,  36.568800,   0.145096,  -0.548517,  -1.028404, -120.000000, -705.000000, -433.500000,  56.814980,  90.463312,   5.487792,   0.634874,   0.607691,   0.364530,  -0.307701, 
17244,  -8.154424,   5.383721,  -0.047660,  -0.459747,  -0.419313,  37.296468,   0.147978,  -0.550872,  -1.038381, -118.500000, -706.500000, -436.500000,  56.446216,  90.454176,   5.478751,   0.635881,   0.608852,   0.362569,  -0.305665, 
17245,  -7.991781,   5.452104,  -0.066073,  -0.525501,  -0.479734,  38.018944,   0.140155,  -0.545347,  -1.050444, -123.000000, -705.000000, -441.000000,  56.068240,  90.439784,   5.465373,   0.636918,   0.610015,   0.360542,  -0.303579, 
17246,  -8.103031,   5.487624,  -0.104386,  -0.515855,  -0.467972,  38.586884,   0.127505,  -0.557654,  -1.041228, -129.000000, -708.000000, -438.000000,  55.692900,  90.431280,   5.456981,   0.637917,   0.611173,   0.358533,  -0.301493, 
17247,  -8.205130,   5.545206,  -0.092977,  -0.501685,  -0.427958,  39.464812,   0.121366,  -0.560185,  -1.031505, -132.000000, -708.000000, -435.000000,  55.307968,  90.419912,   5.446388,   0.638951,   0.612352,   0.356467,  -0.299357, 
17248,  -8.072221,   5.605617,  -0.067355,  -0.497010,  -0.504407,  40.760252,   0.122067,  -0.554121,  -1.040002, -132.000000, -706.500000, -438.000000,  54.910288,  90.407112,   5.433731,   0.640021,   0.613568,   0.354326,  -0.297158, 
17249,  -7.850004,   5.648281,  -0.049538,  -0.558419,  -0.494266,  42.143520,   0.123531,  -0.571411,  -1.042636, -130.500000, -712.500000, -438.000000,  54.505036,  90.401640,   5.427401,   0.641065,   0.614808,   0.352147,  -0.294893, 
17250,  -7.845058,   5.735004,  -0.088655,  -0.577600,  -0.556277,  42.963188,   0.118311,  -0.599290,  -1.041240, -132.000000, -721.500000, -436.500000,  54.082900,  90.396600,   5.421432,   0.642147,   0.616095,   0.349875,  -0.292530, 
17251,  -7.945507,   5.772319,  -0.128067,  -0.526374,  -0.523904,  43.326948,   0.102324,  -0.589870,  -1.056291, -141.000000, -718.500000, -442.500000,  53.647264,  90.386736,   5.411568,   0.643279,   0.617408,   0.347522,  -0.290098, 
17252,  -7.777848,   5.868648,  -0.072850,  -0.532979,  -0.569046,  43.582320,   0.100672,  -0.576201,  -1.058772, -142.500000, -714.000000, -444.000000,  53.202148,  90.374992,   5.399980,   0.644425,   0.618729,   0.345105,  -0.287611, 
17253,  -7.613205,   5.892565,  -0.052918,  -0.468197,  -0.563914,  44.231988,   0.103805,  -0.604354,  -1.049272, -139.500000, -723.000000, -439.500000,  52.761852,  90.367008,   5.390984,   0.645532,   0.620035,   0.342710,  -0.285141, 
17254,  -7.694347,   5.937140,  -0.083198,  -0.542965,  -0.586216,  44.866072,   0.097292,  -0.614128,  -1.049779, -142.500000, -726.000000, -439.500000,  52.321640,  90.359968,   5.382973,   0.646637,   0.621342,   0.340317,  -0.282670, 
17255,  -7.748588,   6.001295,  -0.074509,  -0.616636,  -0.583498,  45.561552,   0.095281,  -0.604894,  -1.052838, -144.000000, -723.000000, -441.000000,  51.866940,  90.350392,   5.373088,   0.647776,   0.622672,   0.337836,  -0.280116, 
17256,  -7.492630,   6.109136,  -0.082102,  -0.620516,  -0.565977,  45.701068,   0.101436,  -0.599556,  -1.052908, -141.000000, -721.500000, -441.000000,  51.397064,  90.344064,   5.365612,   0.648920,   0.624038,   0.335268,  -0.277462, 
17257,  -7.454715,   6.239512,  -0.117009,  -0.537543,  -0.497589,  44.998256,   0.086946,  -0.601814,  -1.051288, -148.500000, -721.500000, -441.000000,  50.925128,  90.330592,   5.352779,   0.650095,   0.625385,   0.332675,  -0.274808, 
17258,  -7.339998,   6.266624,  -0.081381,  -0.487457,  -0.535706,  43.939272,   0.084219,  -0.601451,  -1.055502, -150.000000, -721.500000, -442.500000,  50.453732,  90.316608,   5.339101,   0.651259,   0.626718,   0.330075,  -0.272155, 
17259,  -7.158470,   6.277647,   0.020962,  -0.516455,  -0.546367,  42.412852,   0.086946,  -0.601814,  -1.051288, -148.500000, -721.500000, -441.000000,  49.996908,  90.302920,   5.325464,   0.652368,   0.627989,   0.327542,  -0.269578, 
17260,  -7.226607,   6.382715,  -0.048982,  -0.450617,  -0.457457,  40.684240,   0.076117,  -0.626974,  -1.044129, -153.000000, -729.000000, -438.000000,  49.556168,  90.291488,   5.314160,   0.653433,   0.629220,   0.325104,  -0.267088, 
17261,  -7.312474,   6.442116,  -0.062106,  -0.527513,  -0.482695,  39.185064,   0.068700,  -0.649241,  -1.050906, -156.000000, -736.500000, -439.500000,  49.130172,  90.278736,   5.302471,   0.654464,   0.630395,   0.322743,  -0.264678, 
17262,  -7.279409,   6.488607,  -0.031139,  -0.438226,  -0.410927,  37.594684,   0.063246,  -0.648514,  -1.059333, -159.000000, -736.500000, -442.500000,  48.721272,  90.263120,   5.288542,   0.655445,   0.631489,   0.320458,  -0.262363, 
17263,  -7.138056,   6.466184,  -0.038953,  -0.428232,  -0.415287,  36.741828,   0.064134,  -0.638829,  -1.062715, -159.000000, -733.500000, -444.000000,  48.338404,  90.253112,   5.278824,   0.656346,   0.632529,   0.318325,  -0.260190, 
17264,  -7.290515,   6.501743,  -0.079606,  -0.445219,  -0.415824,  36.628496,   0.067578,  -0.630321,  -1.057347, -157.500000, -730.500000, -442.500000,  47.978604,  90.243496,   5.269657,   0.657194,   0.633506,   0.316321,  -0.258147, 
17265,  -7.243761,   6.571725,   0.001051,  -0.455218,  -0.438950,  37.324204,   0.063637,  -0.638466,  -1.039450, -159.000000, -732.000000, -436.500000,  47.614600,  90.230840,   5.258240,   0.658050,   0.634469,   0.314281,  -0.256081, 
