Standard output of YIS Manager:
  TID,     AccX,     AccY,     AccZ,    AngVX,    AngVY,    AngVZ,     MagX,     MagY,     MagZ, NormMagX, NormMagY, NormMagZ,    Pitch,     Roll,      Yaw,       q0,       q1,       q2,       q3, 
18123,  -0.295778,  -9.776504,  -0.208528,  -0.067896,   0.161466,  -0.118327,   0.020098,   1.083482,  -0.809329, -255.000000, -141.000000, -442.500000,   1.789679, -91.105816, -178.749776,   0.018786,   0.003147,   0.713862,  -0.699977, 
18124,  -0.318438,  -9.713273,  -0.159670,  -0.162266,   0.170574,  -0.119205,   0.013927,   1.075337,  -0.818911, -258.000000, -144.000000, -445.500000,   1.790954, -91.104032, -178.751808,   0.018782,   0.003168,   0.713851,  -0.699988, 
18125,  -0.308428,  -9.791224,  -0.210993,   0.051779,   0.098700,  -0.161639,   0.017851,   1.080676,  -0.846460, -256.500000, -144.000000, -454.500000,   1.791662, -91.105272, -178.753168,   0.018778,   0.003180,   0.713858,  -0.699980, 
18126,  -0.316880,  -9.790624,  -0.196302,  -0.162309,   0.170707,  -0.093095,   0.005746,   1.076426,  -0.831552, -262.500000, -144.000000, -450.000000,   1.791617, -91.106864, -178.749136,   0.018802,   0.003155,   0.713868,  -0.699970, 
18127,  -0.297584,  -9.744070,  -0.168388,  -0.145849,   0.108705,  -0.033094,   0.004500,   1.062305,  -0.828747, -262.500000, -148.500000, -448.500000,   1.789244, -91.106216, -178.736320,   0.018866,   0.003060,   0.713865,  -0.699972, 
18128,  -0.294378,  -9.720999,  -0.189004,  -0.093277,   0.206182,  -0.083001,   0.016621,   1.069361,  -0.834003, -256.500000, -147.000000, -450.000000,   1.787284, -91.105576, -178.740656,   0.018827,   0.003076,   0.713861,  -0.699977, 
18129,  -0.293110,  -9.851539,  -0.222133,  -0.058624,   0.223499,  -0.160638,   0.007602,   1.069184,  -0.814303, -261.000000, -145.500000, -444.000000,   1.783765, -91.107232, -178.732208,   0.018857,   0.003001,   0.713872,  -0.699967, 
18130,  -0.316788,  -9.745772,  -0.164402,  -0.188842,   0.108978,   0.001248,   0.006697,   1.056692,  -0.820573, -261.000000, -150.000000, -445.500000,   1.786421, -91.108136, -178.720240,   0.018946,   0.002943,   0.713878,  -0.699959, 
18131,  -0.285165,  -9.666694,  -0.175915,   0.060894,   0.161221,  -0.108210,   0.002895,   1.043749,  -0.826519, -262.500000, -154.500000, -447.000000,   1.786993, -91.104504, -178.704576,   0.019046,   0.002849,   0.713856,  -0.699979, 
18132,  -0.329401,  -9.900640,  -0.219027,  -0.146878,   0.069216,  -0.218503,   0.002895,   1.043749,  -0.826519, -262.500000, -154.500000, -447.000000,   1.783477, -91.107392, -178.690784,   0.019108,   0.002741,   0.713875,  -0.699960, 
18133,  -0.281786,  -9.668570,  -0.128678,  -0.093202,   0.224285,  -0.021757,   0.016621,   1.069361,  -0.834003, -256.500000, -147.000000, -450.000000,   1.784818, -91.104248, -178.694992,   0.019091,   0.002776,   0.713856,  -0.699980, 
18134,  -0.310906,  -9.800970,  -0.188920,   0.105659,   0.156266,  -0.090399,   0.016809,   1.072982,  -0.828887, -256.500000, -145.500000, -448.500000,   1.782941, -91.101560, -178.700800,   0.019043,   0.002801,   0.713839,  -0.699998, 
18135,  -0.307157,  -9.797683,  -0.235185,  -0.110218,   0.223836,  -0.117686,   0.012868,   1.064837,  -0.810991, -258.000000, -147.000000, -442.500000,   1.785672, -91.104464, -178.698400,   0.019075,   0.002802,   0.713857,  -0.699979, 
18136,  -0.287349,  -9.734976,  -0.137814,  -0.107843,   0.164221,  -0.177705,   0.008832,   1.080498,  -0.826761, -261.000000, -142.500000, -448.500000,   1.781721, -91.102328, -178.692704,   0.019085,   0.002743,   0.713844,  -0.699992, 
18137,  -0.313081,  -9.736897,  -0.179122,  -0.016620,   0.152941,  -0.022181,   0.006822,   1.089733,  -0.829819, -262.500000, -139.500000, -450.000000,   1.784653, -91.101384, -178.680976,   0.019175,   0.002688,   0.713839,  -0.699996, 
18138,  -0.339230,  -9.833390,  -0.206465,  -0.023697,   0.196057,  -0.098853,   0.005780,   1.082039,  -0.812246, -262.500000, -141.000000, -444.000000,   1.786441, -91.102848, -178.668128,   0.019265,   0.002619,   0.713848,  -0.699985, 
18139,  -0.304041,  -9.713914,  -0.163695,  -0.170895,   0.179888,  -0.040808,   0.004345,   1.064297,  -0.814556, -262.500000, -147.000000, -444.000000,   1.787730, -91.102080, -178.654256,   0.019358,   0.002541,   0.713844,  -0.699987, 
18140,  -0.319718,  -9.736364,  -0.168482,   0.059435,   0.125092,  -0.021838,   0.006543,   1.058684,  -0.806383, -261.000000, -148.500000, -441.000000,   1.789387, -91.097824, -178.643536,   0.019433,   0.002485,   0.713819,  -0.700012, 
18141,  -0.275098,  -9.851007,  -0.229081,  -0.119007,   0.215313,  -0.048310,   0.009457,   1.061942,  -0.797055, -259.500000, -147.000000, -438.000000,   1.785526, -91.100296, -178.639312,   0.019435,   0.002434,   0.713834,  -0.699997, 
18142,  -0.310058,  -9.709642,  -0.153179,  -0.177406,   0.093717,  -0.079157,   0.006543,   1.058684,  -0.806383, -261.000000, -148.500000, -441.000000,   1.784574, -91.100328, -178.630528,   0.019483,   0.002374,   0.713835,  -0.699996, 
18143,  -0.325694,  -9.739804,  -0.176267,   0.044258,   0.205430,  -0.168528,   0.015766,   1.065289,  -0.811315, -256.500000, -147.000000, -442.500000,   1.788121, -91.098360, -178.632944,   0.019490,   0.002411,   0.713823,  -0.700008, 
18144,  -0.304404,  -9.810909,  -0.225600,  -0.055060,   0.109062,  -0.116216,   0.022279,   1.075063,  -0.810808, -253.500000, -144.000000, -442.500000,   1.788583, -91.101592, -178.646176,   0.019412,   0.002496,   0.713842,  -0.699989, 
18145,  -0.320764,  -9.721489,  -0.185660,  -0.179046,   0.206065,  -0.144868,   0.007789,   1.072805,  -0.809188, -261.000000, -144.000000, -442.500000,   1.792273, -91.102472, -178.636192,   0.019496,   0.002456,   0.713848,  -0.699982, 
18146,  -0.294059,  -9.732761,  -0.184551,  -0.084057,   0.275508,  -0.051691,   0.008677,   1.082491,  -0.812570, -261.000000, -141.000000, -444.000000,   1.792410, -91.101952, -178.629376,   0.019539,   0.002414,   0.713845,  -0.699984, 
18147,  -0.296609,  -9.824949,  -0.212699,  -0.127991,   0.161557,  -0.127691,   0.019381,   1.074611,  -0.810484, -255.000000, -144.000000, -442.500000,   1.791055, -91.104240, -178.639408,   0.019469,   0.002468,   0.713858,  -0.699971, 
18148,  -0.299427,  -9.750052,  -0.195619,  -0.222722,   0.149371,  -0.039987,   0.019023,   1.070176,  -0.811062, -255.000000, -145.500000, -442.500000,   1.789138, -91.106024, -178.648880,   0.019399,   0.002515,   0.713869,  -0.699962, 
18149,  -0.279637,  -9.734134,  -0.149363,  -0.067924,   0.170716,  -0.048539,   0.023134,   1.079135,  -0.833496, -253.500000, -144.000000, -450.000000,   1.789003, -91.101784, -178.663856,   0.019307,   0.002608,   0.713842,  -0.699990, 
18150,  -0.293891,  -9.831451,  -0.217666,   0.036975,   0.148237,  -0.145450,   0.013039,   1.065652,  -0.815529, -258.000000, -147.000000, -444.000000,   1.787216, -91.102992, -178.664192,   0.019294,   0.002599,   0.713849,  -0.699983, 
18151,  -0.299287,  -9.735769,  -0.180199,  -0.128122,   0.152793,  -0.101739,  -0.001433,   1.066201,  -0.804256, -265.500000, -145.500000, -441.000000,   1.788446, -91.104688, -178.641056,   0.019443,   0.002462,   0.713861,  -0.699969, 
18152,  -0.308988,  -9.730084,  -0.178365,   0.014039,   0.156551,  -0.075931,   0.007243,   1.064749,  -0.814880, -261.000000, -147.000000, -444.000000,   1.789285, -91.102912, -178.632048,   0.019503,   0.002412,   0.713851,  -0.699979, 
18153,  -0.320559,  -9.807743,  -0.197521,   0.009532,   0.179173,  -0.099754,   0.014115,   1.078958,  -0.813796, -258.000000, -142.500000, -444.000000,   1.791515, -91.102496, -178.632160,   0.019516,   0.002426,   0.713848,  -0.699981, 
18154,  -0.310761,  -9.768415,  -0.183651,  -0.122820,   0.212253,  -0.068713,   0.011917,   1.084571,  -0.821970, -259.500000, -141.000000, -447.000000,   1.792293, -91.103384, -178.630352,   0.019532,   0.002419,   0.713854,  -0.699975, 
18155,  -0.305872,  -9.709795,  -0.151312,  -0.093846,   0.152938,  -0.057844,   0.014816,   1.085023,  -0.822294, -258.000000, -141.000000, -447.000000,   1.792223, -91.100048, -178.632656,   0.019517,   0.002434,   0.713833,  -0.699996, 
18156,  -0.303359,  -9.815639,  -0.226644,  -0.047102,   0.140636,  -0.123303,   0.010842,   1.071265,  -0.823702, -259.500000, -145.500000, -447.000000,   1.792021, -91.101200, -178.629792,   0.019534,   0.002415,   0.713840,  -0.699989, 
18157,  -0.304361,  -9.759452,  -0.144253,  -0.162690,   0.126049,  -0.128704,   0.010638,   1.064837,  -0.838470, -259.500000, -148.500000, -451.500000,   1.792953, -91.100752, -178.626720,   0.019558,   0.002401,   0.713838,  -0.699991, 
18158,  -0.312527,  -9.720998,  -0.150189,  -0.068276,   0.125969,  -0.101556,   0.013381,   1.067281,  -0.824604, -258.000000, -147.000000, -447.000000,   1.793951, -91.096840, -178.626912,   0.019563,   0.002409,   0.713813,  -0.700015, 
18159,  -0.309073,  -9.813055,  -0.226357,   0.017973,   0.161273,  -0.117385,   0.019210,   1.073797,  -0.805947, -255.000000, -144.000000, -441.000000,   1.792855, -91.097840, -178.635984,   0.019501,   0.002459,   0.713819,  -0.700010, 
18160,  -0.316693,  -9.753398,  -0.195095,  -0.171347,   0.135451,  -0.032900,   0.016654,   1.074974,  -0.814698, -256.500000, -144.000000, -444.000000,   1.793837, -91.099720, -178.640368,   0.019480,   0.002492,   0.713830,  -0.699999, 
18161,  -0.302342,  -9.741088,  -0.173143,  -0.101717,   0.224082,  -0.065370,   0.008098,   1.068821,  -0.837568, -261.000000, -147.000000, -451.500000,   1.793192, -91.097976, -178.633968,   0.019515,   0.002448,   0.713820,  -0.700009, 
18162,  -0.294617,  -9.781241,  -0.205572,   0.034681,   0.126004,  -0.048204,   0.010638,   1.064837,  -0.838470, -259.500000, -148.500000, -451.500000,   1.792799, -91.099176, -178.631696,   0.019527,   0.002432,   0.713828,  -0.700001, 
18163,  -0.322299,  -9.797098,  -0.198117,  -0.162324,   0.170751,  -0.084391,   0.013381,   1.067281,  -0.824604, -258.000000, -147.000000, -447.000000,   1.793698, -91.100688, -178.632384,   0.019528,   0.002441,   0.713837,  -0.699992, 
18164,  -0.313110,  -9.714502,  -0.146058,  -0.051162,   0.107784,  -0.171314,   0.024974,   1.069087,  -0.825900, -252.000000, -147.000000, -447.000000,   1.794479, -91.100008, -178.650224,   0.019424,   0.002557,   0.713832,  -0.699998, 
18165,  -0.309044,  -9.791816,  -0.208047,   0.095301,   0.170129,  -0.090267,   0.025348,   1.076329,  -0.815670, -252.000000, -144.000000, -444.000000,   1.794265, -91.100224, -178.667776,   0.019316,   0.002665,   0.713832,  -0.699999, 
18166,  -0.327716,  -9.774680,  -0.166273,  -0.179072,   0.224477,  -0.022700,   0.014816,   1.085023,  -0.822294, -258.000000, -141.000000, -447.000000,   1.794175, -91.099320, -178.669312,   0.019306,   0.002674,   0.713826,  -0.700005, 
18167,  -0.294428,  -9.709227,  -0.163620,  -0.144960,   0.188461,  -0.092588,   0.013023,   1.062845,  -0.825181, -258.000000, -148.500000, -447.000000,   1.794123, -91.097656, -178.669280,   0.019305,   0.002674,   0.713816,  -0.700016, 
18168,  -0.294828,  -9.796662,  -0.175486,  -0.042341,   0.134542,  -0.153336,   0.015375,   1.055240,  -0.831198, -256.500000, -151.500000, -448.500000,   1.793570, -91.096064, -178.673120,   0.019278,   0.002695,   0.713806,  -0.700026, 
18169,  -0.297636,  -9.783597,  -0.203235,  -0.144652,   0.224179,  -0.065841,   0.011184,   1.072894,  -0.832777, -259.500000, -145.500000, -450.000000,   1.792246, -91.098576, -178.670608,   0.019286,   0.002671,   0.713822,  -0.700010, 
18170,  -0.290823,  -9.713365,  -0.170678,  -0.162104,   0.197573,  -0.057803,   0.005638,   1.046192,  -0.812653, -261.000000, -153.000000, -442.500000,   1.788879, -91.097520, -178.664800,   0.019300,   0.002614,   0.713816,  -0.700017, 
18171,  -0.300613,  -9.782990,  -0.206798,  -0.033096,   0.205826,  -0.125859,   0.004142,   1.057870,  -0.829324, -262.500000, -150.000000, -448.500000,   1.788199, -91.097456, -178.653488,   0.019365,   0.002539,   0.713816,  -0.700016, 
18172,  -0.277890,  -9.799021,  -0.214312,  -0.119372,   0.179773,  -0.040243,   0.001944,   1.063483,  -0.837498, -264.000000, -148.500000, -451.500000,   1.785503, -91.100656, -178.640464,   0.019428,   0.002441,   0.713837,  -0.699995, 
18173,  -0.319565,  -9.704393,  -0.165574,  -0.179644,   0.152909,  -0.102305,  -0.004893,   1.054886,  -0.819277, -267.000000, -150.000000, -445.500000,   1.787806, -91.098872, -178.619024,   0.019573,   0.002322,   0.713827,  -0.700003, 
18174,  -0.302980,  -9.770584,  -0.199135,   0.000800,   0.170473,  -0.065193,   0.004891,   1.072354,  -0.808864, -262.500000, -144.000000, -442.500000,   1.787393, -91.097984, -178.600592,   0.019683,   0.002205,   0.713822,  -0.700006, 
18175,  -0.180432,  -9.674844,  -0.152714,  -0.151179,   0.346176,  -0.568516,   0.011200,   1.075700,  -0.823125, -259.500000, -144.000000, -447.000000,   1.777027, -91.097408, -178.598176,   0.019633,   0.002127,   0.713819,  -0.700011, 
18176,  -0.380556,  -9.916276,  -0.173255,  -0.117919,   0.367790,   0.198092,   0.014065,   1.070539,  -0.842754, -258.000000, -147.000000, -453.000000,   1.795774, -91.093080, -178.590352,   0.019798,   0.002193,   0.713792,  -0.700033, 
18177,  -0.235449,  -9.626810,  -0.122993,  -0.076327,   0.151836,  -0.266541,   0.020236,   1.078684,  -0.833172, -255.000000, -144.000000, -450.000000,   1.783703, -91.091544, -178.604256,   0.019638,   0.002206,   0.713783,  -0.700047, 
18178,  -0.341798,  -9.918032,  -0.267394,  -0.109939,   0.259642,  -0.073531,   0.020766,   1.083934,  -0.837132, -255.000000, -142.500000, -451.500000,   1.790232, -91.093864, -178.613088,   0.019625,   0.002301,   0.713796,  -0.700032, 
18179,  -0.257015,  -9.633796,  -0.133191,  -0.213946,   0.171177,  -0.024031,   0.013335,   1.099507,  -0.829312, -259.500000, -136.500000, -450.000000,   1.788369, -91.092576, -178.620144,   0.019570,   0.002334,   0.713788,  -0.700042, 
18180,  -0.352995,  -9.884887,  -0.271586,   0.095517,   0.178626,  -0.168440,   0.009207,   1.087741,  -0.816531, -261.000000, -139.500000, -445.500000,   1.790256, -91.094352, -178.616352,   0.019605,   0.002321,   0.713799,  -0.700030, 
18181,  -0.287108,  -9.673233,  -0.150557,  -0.273470,   0.233674,  -0.006171,   0.014628,   1.081402,  -0.827409, -258.000000, -142.500000, -448.500000,   1.790591, -91.094600, -178.614576,   0.019618,   0.002312,   0.713801,  -0.700028, 
18182,  -0.305775,  -9.839728,  -0.189760,   0.035043,   0.143220,  -0.161032,   0.019536,   1.072619,  -0.824674, -255.000000, -145.500000, -447.000000,   1.789057, -91.091336, -178.621504,   0.019566,   0.002347,   0.713780,  -0.700049, 
18183,  -0.295503,  -9.706812,  -0.189003,  -0.196654,   0.189108,   0.011289,   0.019349,   1.068998,  -0.829789, -255.000000, -147.000000, -448.500000,   1.790451, -91.094040, -178.631504,   0.019513,   0.002417,   0.713796,  -0.700034, 
18184,  -0.316220,  -9.769375,  -0.185069,   0.103959,   0.169888,  -0.133690,   0.013723,   1.068910,  -0.833679, -258.000000, -147.000000, -450.000000,   1.792020, -91.090792, -178.636784,   0.019491,   0.002460,   0.713776,  -0.700054, 
18185,  -0.301570,  -9.738659,  -0.209726,  -0.214091,   0.162458,   0.010623,   0.019707,   1.073434,  -0.829211, -255.000000, -145.500000, -448.500000,   1.792438, -91.094456, -178.642416,   0.019459,   0.002497,   0.713798,  -0.700032, 
18186,  -0.295832,  -9.736432,  -0.148895,  -0.016330,   0.170379,  -0.091492,   0.013585,   1.073708,  -0.809836, -258.000000, -144.000000, -442.500000,   1.791646, -91.089016, -178.647776,   0.019421,   0.002526,   0.713765,  -0.700067, 
18187,  -0.317170,  -9.807705,  -0.226217,  -0.055058,   0.117206,  -0.069655,   0.004737,   1.074346,  -0.794674, -262.500000, -142.500000, -438.000000,   1.792549, -91.092976, -178.640272,   0.019473,   0.002484,   0.713789,  -0.700041, 
18188,  -0.306622,  -9.728135,  -0.138346,  -0.084384,   0.232719,  -0.108540,   0.008336,   1.080862,  -0.803496, -261.000000, -141.000000, -441.000000,   1.791730, -91.090296, -178.630144,   0.019530,   0.002417,   0.713773,  -0.700057, 
18189,  -0.305995,  -9.801465,  -0.216162,   0.021295,   0.116955,  -0.084291,   0.005062,   1.073168,  -0.813401, -262.500000, -144.000000, -444.000000,   1.792157, -91.090000, -178.619760,   0.019596,   0.002355,   0.713772,  -0.700057, 
18190,  -0.298841,  -9.752934,  -0.165453,  -0.093248,   0.206093,  -0.100408,   0.013227,   1.069273,  -0.810413, -258.000000, -145.500000, -442.500000,   1.792034, -91.089168, -178.614496,   0.019627,   0.002321,   0.713767,  -0.700061, 
18191,  -0.314405,  -9.775177,  -0.210961,  -0.054723,   0.140614,  -0.131124,   0.019178,   1.068184,  -0.825252, -255.000000, -147.000000, -447.000000,   1.792477, -91.088848, -178.619408,   0.019600,   0.002355,   0.713765,  -0.700064, 
18192,  -0.295826,  -9.765322,  -0.184324,  -0.093642,   0.170641,  -0.074933,   0.020578,   1.080313,  -0.842247, -255.000000, -144.000000, -453.000000,   1.790353, -91.089552, -178.631536,   0.019512,   0.002417,   0.713769,  -0.700062, 
18193,  -0.355214,  -9.805023,  -0.172466,  -0.001723,   0.084785,  -0.201155,   0.009361,   1.085749,  -0.830721, -261.000000, -141.000000, -450.000000,   1.791110, -91.088720, -178.633840,   0.019503,   0.002436,   0.713763,  -0.700067, 
18194,  -0.276528,  -9.772424,  -0.220185,  -0.257656,   0.091163,  -0.034637,   0.002661,   1.072354,  -0.836343, -264.000000, -145.500000, -451.500000,   1.787727, -91.093392, -178.625040,   0.019536,   0.002360,   0.713793,  -0.700037, 
18195,  -0.334152,  -9.728989,  -0.148126,   0.044802,   0.163917,  -0.168293,   0.013177,   1.060853,  -0.839371, -258.000000, -150.000000, -451.500000,   1.789259, -91.089904, -178.617856,   0.019589,   0.002325,   0.713772,  -0.700058, 
18196,  -0.292286,  -9.816068,  -0.231546,  -0.128427,   0.135399,  -0.023725,   0.019332,   1.066192,  -0.839442, -255.000000, -148.500000, -451.500000,   1.786502, -91.093600, -178.625616,   0.019525,   0.002356,   0.713794,  -0.700036, 
18197,  -0.319239,  -9.714376,  -0.130169,  -0.039132,   0.172171,  -0.138127,   0.023898,   1.055780,  -0.827632, -252.000000, -151.500000, -447.000000,   1.787199, -91.090064, -178.638880,   0.019448,   0.002444,   0.713772,  -0.700060, 
18198,  -0.287957,  -9.771217,  -0.209056,   0.000243,   0.098860,  -0.153501,   0.021546,   1.063385,  -0.821616, -253.500000, -148.500000, -445.500000,   1.784932, -91.090448, -178.655056,   0.019335,   0.002531,   0.713773,  -0.700060, 
18199,  -0.286217,  -9.731809,  -0.149344,  -0.161401,   0.164735,  -0.100927,   0.022075,   1.068635,  -0.825576, -253.500000, -147.000000, -447.000000,   1.783703, -91.089728, -178.668160,   0.019247,   0.002605,   0.713768,  -0.700067, 
18200,  -0.293438,  -9.799533,  -0.222690,  -0.033065,   0.214899,  -0.090886,   0.027171,   1.063474,  -0.817726, -250.500000, -148.500000, -444.000000,   1.781463, -91.091800, -178.686256,   0.019123,   0.002703,   0.713780,  -0.700057, 
18201,  -0.290937,  -9.733329,  -0.168266,  -0.169290,   0.157395,   0.007158,   0.016825,   1.075789,  -0.819235, -256.500000, -144.000000, -445.500000,   1.777403, -91.091536, -178.700320,   0.019012,   0.002766,   0.713777,  -0.700061, 
18202,  -0.354158,  -9.813521,  -0.195415,  -0.093790,   0.143598,  -0.145039,   0.008319,   1.078055,  -0.813148, -261.000000, -142.500000, -444.000000,   1.783415, -91.092600, -178.695632,   0.019078,   0.002773,   0.713784,  -0.700053, 
18203,  -0.243775,  -9.775558,  -0.161123,  -0.191879,   0.180934,  -0.039087,   0.014474,   1.083394,  -0.813218, -258.000000, -141.000000, -444.000000,   1.778054, -91.092528, -178.694128,   0.019054,   0.002731,   0.713784,  -0.700054, 
18204,  -0.389229,  -9.743090,  -0.177923,   0.026179,   0.116595,  -0.152900,   0.008457,   1.073257,  -0.836991, -261.000000, -145.500000, -451.500000,   1.784507, -91.090168, -178.687024,   0.019137,   0.002727,   0.713769,  -0.700066, 
18205,  -0.230984,  -9.822251,  -0.217716,  -0.123464,   0.173502,   0.085309,   0.004842,   1.063934,  -0.837822, -262.500000, -148.500000, -451.500000,   1.782097, -91.093352, -178.678704,   0.019173,   0.002660,   0.713790,  -0.700046, 
18206,  -0.378361,  -9.718924,  -0.167793,  -0.059647,   0.116655,  -0.179953,   0.016467,   1.071353,  -0.819813, -256.500000, -145.500000, -445.500000,   1.783655, -91.091488, -178.674144,   0.019210,   0.002641,   0.713779,  -0.700056, 
18207,  -0.276225,  -9.808426,  -0.210175,   0.022532,   0.259807,   0.018827,   0.012665,   1.058410,  -0.825759, -258.000000, -150.000000, -447.000000,   1.786264, -91.089704, -178.675360,   0.019219,   0.002665,   0.713767,  -0.700067, 
18208,  -0.327936,  -9.717323,  -0.185121,  -0.034117,   0.108144,  -0.092794,   0.013039,   1.065652,  -0.815529, -258.000000, -147.000000, -444.000000,   1.784546, -91.090576, -178.676048,   0.019204,   0.002659,   0.713773,  -0.700062, 
18209,  -0.311931,  -9.803045,  -0.200470,  -0.023772,   0.204438,  -0.005874,   0.008710,   1.088104,  -0.793266, -261.000000, -138.000000, -438.000000,   1.789021, -91.090616, -178.669632,   0.019271,   0.002646,   0.713773,  -0.700060, 
18210,  -0.300958,  -9.706225,  -0.174289,  -0.179558,   0.152643,  -0.154526,   0.005096,   1.078781,  -0.794097, -262.500000, -141.000000, -438.000000,   1.787744, -91.090760, -178.659104,   0.019328,   0.002573,   0.713775,  -0.700058, 
18211,  -0.300782,  -9.818308,  -0.209840,  -0.000088,   0.242704,  -0.244747,   0.016842,   1.078595,  -0.809583, -256.500000, -142.500000, -442.500000,   1.784080, -91.090952, -178.655920,   0.019324,   0.002531,   0.713776,  -0.700057, 
18212,  -0.302871,  -9.741056,  -0.189081,  -0.195943,   0.232748,  -0.153283,   0.013944,   1.078144,  -0.809259, -258.000000, -142.500000, -442.500000,   1.784186, -91.091968, -178.658144,   0.019312,   0.002545,   0.713782,  -0.700051, 
18213,  -0.270170,  -9.740754,  -0.174936,   0.045305,   0.194958,  -0.283775,   0.013381,   1.067281,  -0.824604, -258.000000, -147.000000, -447.000000,   1.779924, -91.089176, -178.660720,   0.019269,   0.002535,   0.713765,  -0.700070, 
18214,  -0.352743,  -9.781595,  -0.207186,   0.017723,   0.125378,  -0.178946,   0.018802,   1.060942,  -0.835482, -255.000000, -150.000000, -450.000000,   1.783892, -91.089488, -178.663104,   0.019279,   0.002574,   0.713767,  -0.700067, 
18215,  -0.267567,  -9.751245,  -0.188825,  -0.101208,   0.259180,  -0.160473,   0.019349,   1.068998,  -0.829789, -255.000000, -147.000000, -448.500000,   1.782417, -91.090656, -178.673040,   0.019209,   0.002627,   0.713773,  -0.700062, 
18216,  -0.331248,  -9.749285,  -0.150938,  -0.016324,   0.115363,  -0.414478,   0.013194,   1.063660,  -0.829718, -258.000000, -148.500000, -448.500000,   1.778968, -91.086528, -178.673760,   0.019183,   0.002611,   0.713748,  -0.700088, 
18217,  -0.296924,  -9.772350,  -0.215616,  -0.031903,   0.293813,  -0.315747,   0.012461,   1.051982,  -0.840526, -258.000000, -153.000000, -451.500000,   1.780696, -91.087464, -178.672624,   0.019201,   0.002614,   0.713754,  -0.700082, 
18218,  -0.307092,  -9.757560,  -0.202698,  -0.128756,   0.053916,  -0.303671,   0.014641,   1.043563,  -0.842005, -256.500000, -156.000000, -451.500000,   1.774293, -91.089592, -178.678672,   0.019124,   0.002613,   0.713767,  -0.700071, 
18219,  -0.341104,  -9.687192,  -0.153330,   0.036513,   0.257853,  -0.359147,   0.010125,   1.062394,  -0.824857, -259.500000, -148.500000, -447.000000,   1.777516, -91.086464, -178.671664,   0.019187,   0.002589,   0.713748,  -0.700089, 
18220,  -0.268793,  -9.803730,  -0.244346,  -0.050803,   0.106677,  -0.388904,   0.005780,   1.082039,  -0.812246, -262.500000, -141.000000, -444.000000,   1.768843, -91.090800, -178.662944,   0.019187,   0.002481,   0.713775,  -0.700062, 
18221,  -0.353478,  -9.746861,  -0.135167,  -0.075831,   0.196140,  -0.300560,   0.006309,   1.087289,  -0.816207, -262.500000, -139.500000, -445.500000,   1.773166, -91.088520, -178.648832,   0.019300,   0.002420,   0.713762,  -0.700073, 
18222,  -0.260922,  -9.763044,  -0.214751,  -0.101854,   0.178671,  -0.248940,   0.012121,   1.090999,  -0.807202, -259.500000, -138.000000, -442.500000,   1.767672, -91.090256, -178.648880,   0.019265,   0.002387,   0.713773,  -0.700064, 
18223,  -0.349803,  -9.771017,  -0.181780,  -0.058947,   0.178663,  -0.231062,   0.008165,   1.080047,  -0.798958, -261.000000, -141.000000, -439.500000,   1.769788, -91.090480, -178.639024,   0.019339,   0.002338,   0.713775,  -0.700061, 
18224,  -0.277901,  -9.793130,  -0.204865,  -0.033201,   0.178650,  -0.222075,   0.011217,   1.078507,  -0.813472, -259.500000, -142.500000, -444.000000,   1.768558, -91.090576, -178.636768,   0.019345,   0.002316,   0.713776,  -0.700060, 
18225,  -0.296985,  -9.724614,  -0.145354,  -0.093652,   0.106508,  -0.441596,   0.016996,   1.076603,  -0.823773, -256.500000, -144.000000, -447.000000,   1.762560, -91.088616, -178.644448,   0.019260,   0.002328,   0.713763,  -0.700074, 
18226,  -0.307297,  -9.794792,  -0.199774,   0.062330,   0.248456,  -0.446059,   0.010654,   1.067644,  -0.828817, -259.500000, -147.000000, -448.500000,   1.761691, -91.087184, -178.640624,   0.019278,   0.002299,   0.713755,  -0.700083, 
18227,  -0.253213,  -9.761929,  -0.194627,  -0.084773,   0.133088,  -0.458432,   0.013740,   1.071716,  -0.824026, -258.000000, -145.500000, -447.000000,   1.752506, -91.089176, -178.645232,   0.019193,   0.002271,   0.713767,  -0.700073, 
18228,  -0.296958,  -9.716938,  -0.142398,  -0.006331,   0.193505,  -0.787207,   0.025691,   1.077958,  -0.824745, -252.000000, -144.000000, -447.000000,   1.744853, -91.085968, -178.665728,   0.019020,   0.002353,   0.713747,  -0.700097, 
18229,  -0.274343,  -9.802004,  -0.206615,   0.026880,   0.096101,  -0.684136,   0.019381,   1.074611,  -0.810484, -255.000000, -144.000000, -442.500000,   1.735742, -91.085888, -178.676896,   0.018895,   0.002367,   0.713746,  -0.700101, 
18230,  -0.323531,  -9.793571,  -0.186320,  -0.075440,   0.130766,  -0.910924,   0.012322,   1.056781,  -0.816684, -258.000000, -150.000000, -444.000000,   1.729096, -91.087176, -178.676208,   0.018858,   0.002321,   0.713754,  -0.700094, 
18231,  -0.240494,  -9.721828,  -0.177980,  -0.065904,   0.219487,  -0.952757,   0.009579,   1.054337,  -0.830549, -259.500000, -151.500000, -448.500000,   1.716411, -91.084816, -178.675248,   0.018785,   0.002238,   0.713741,  -0.700111, 
18232,  -0.220297,  -9.728474,  -0.144785,  -0.099381,   0.189377,  -1.641194,   0.008131,   1.074434,  -0.818263, -261.000000, -144.000000, -445.500000,   1.695079, -91.084376, -178.673024,   0.018666,   0.002094,   0.713739,  -0.700117, 
18233,  -0.175396,  -9.764641,  -0.176934,   0.013567,   0.166727,  -2.545458,   0.021904,   1.067821,  -0.821038, -253.500000, -147.000000, -445.500000,   1.661272, -91.083000, -178.694432,   0.018324,   0.002021,   0.713731,  -0.700134, 
18234,  -0.131877,  -9.679752,  -0.161208,  -0.018795,   0.179016,  -3.642167,   0.013006,   1.060039,  -0.834834, -258.000000, -150.000000, -450.000000,   1.610895, -91.081328, -178.706448,   0.017937,   0.001788,   0.713722,  -0.700156, 
18235,  -0.121201,  -9.734680,  -0.200707,   0.096532,   0.295694,  -5.135730,   0.010654,   1.067644,  -0.828817, -259.500000, -147.000000, -448.500000,   1.546719, -91.079504, -178.716464,   0.017476,   0.001459,   0.713713,  -0.700180, 
18236,  -0.037241,  -9.737351,  -0.217197,   0.030519,   0.278404,  -6.816432,   0.017184,   1.080224,  -0.818658, -256.500000, -142.500000, -445.500000,   1.458129, -91.082040, -178.741072,   0.016775,   0.001070,   0.713732,  -0.700183, 
18237,  -0.086466,  -9.690607,  -0.143172,  -0.001190,   0.242845,  -8.575408,   0.009003,   1.081313,  -0.831298, -261.000000, -142.500000, -450.000000,   1.355520, -91.077752, -178.753744,   0.016058,   0.000523,   0.713706,  -0.700226, 
18238,  -0.076882,  -9.739588,  -0.199789,   0.148331,   0.295755, -10.348223,  -0.004193,   1.060951,  -0.827775, -267.000000, -148.500000, -448.500000,   1.239739, -91.075840, -178.748496,   0.015369,  -0.000217,   0.713692,  -0.700249, 
18239,  -0.118285,  -9.748287,  -0.198334,   0.090761,   0.361391, -11.461667,  -0.004706,   1.058507,  -0.814162, -267.000000, -148.500000, -444.000000,   1.120776, -91.075392, -178.740384,   0.014678,  -0.000994,   0.713686,  -0.700264, 
18240,  -0.090574,  -9.702347,  -0.176850,   0.161457,   0.382566, -12.513568,   0.001651,   1.070273,  -0.799465, -264.000000, -144.000000, -439.500000,   0.988891, -91.073192, -178.746240,   0.013821,  -0.001764,   0.713668,  -0.700292, 
18241,  -0.115358,  -9.757762,  -0.193597,   0.144946,   0.307227, -13.341868,   0.002181,   1.075523,  -0.803425, -264.000000, -142.500000, -441.000000,   0.853593, -91.072120, -178.753920,   0.012932,  -0.002543,   0.713658,  -0.700314, 
18242,  -0.083603,  -9.778532,  -0.216391,   0.129534,   0.365996, -14.037229,  -0.000578,   1.070273,  -0.826944, -265.500000, -145.500000, -448.500000,   0.711228, -91.073800, -178.762144,   0.011995,  -0.003362,   0.713664,  -0.700319, 
18243,  -0.081215,  -9.753190,  -0.184487,   0.104238,   0.309620, -14.639013,  -0.011828,   1.070096,  -0.834723, -271.500000, -145.500000, -451.500000,   0.564801, -91.072624, -178.756640,   0.011117,  -0.004291,   0.713653,  -0.700341, 
18244,  -0.034637,  -9.730668,  -0.180518,   0.233241,   0.418949, -15.239054,  -0.013246,   1.055161,  -0.827380, -271.500000, -150.000000, -448.500000,   0.414606, -91.068136, -178.752016,   0.010210,  -0.005237,   0.713621,  -0.700385, 
18245,   0.063831,  -9.764974,  -0.202299,   0.099407,   0.435553, -16.116327,   0.001602,   1.061854,  -0.828423, -264.000000, -148.500000, -448.500000,   0.245067, -91.068616, -178.779280,   0.008987,  -0.006104,   0.713620,  -0.700401, 
18246,   0.235366,  -9.622025,  -0.155874,   0.094259,   0.514708, -18.240430,   0.000138,   1.079144,  -0.825789, -265.500000, -142.500000, -448.500000,   0.046383, -91.063288, -178.814624,   0.007534,  -0.007098,   0.713583,  -0.700456, 
18247,   0.458776,  -9.624209,  -0.175063,   0.325223,   0.565704, -21.907690,  -0.011983,   1.072088,  -0.820533, -271.500000, -144.000000, -447.000000,  -0.212115, -91.059392, -178.850368,   0.005706,  -0.008455,   0.713538,  -0.700491, 
18248,   0.610938,  -9.645028,  -0.186139,   0.315598,   0.613867, -26.629734,  -0.012121,   1.076887,  -0.796690, -271.500000, -141.000000, -439.500000,  -0.527025, -91.056872, -178.898304,   0.003453,  -0.010082,   0.713494,  -0.700515, 
18249,   0.635573,  -9.600747,  -0.148352,   0.351539,   0.657664, -31.801010,  -0.006154,   1.078604,  -0.801876, -268.500000, -141.000000, -441.000000,  -0.895165, -91.051440, -178.964496,   0.000756,  -0.011920,   0.713431,  -0.700557, 
18250,   0.567628,  -9.653831,  -0.159714,   0.401462,   0.642238, -36.561244,  -0.011608,   1.079330,  -0.810303, -271.500000, -141.000000, -444.000000,  -1.296340, -91.045864, -179.024864,  -0.002109,  -0.013996,   0.713366,  -0.700597, 
18251,   0.611160,  -9.715226,  -0.182841,   0.478643,   0.747184, -40.379120,  -0.013788,   1.087750,  -0.808823, -273.000000, -138.000000, -444.000000,  -1.731537, -91.041936, -179.089104,  -0.005211,  -0.016256,   0.713286,  -0.700600, 
18252,   0.646959,  -9.676185,  -0.176449,   0.392275,   0.779252, -43.830712,  -0.016499,   1.090919,  -0.803385, -274.500000, -136.500000, -442.500000,  -2.193017, -91.038152, -179.156960,  -0.008499,  -0.018655,   0.713198,  -0.700589, 
18253,   0.777382,  -9.636795,  -0.139647,   0.543094,   0.835518, -47.469740,  -0.021595,   1.096081,  -0.811234, -277.500000, -135.000000, -445.500000,  -2.697359, -91.030320, -179.233120,  -0.012102,  -0.021264,   0.713084,  -0.700595, 
18254,   0.909524,  -9.709242,  -0.201794,   0.521118,   0.913988, -51.485480,  -0.024338,   1.093637,  -0.825100, -279.000000, -136.500000, -450.000000,  -3.243512, -91.025040, -179.319760,  -0.016030,  -0.024063,   0.712952,  -0.700545, 
18255,   0.954181,  -9.653427,  -0.160767,   0.549597,   0.953990, -55.657040,  -0.021644,   1.087661,  -0.840192, -277.500000, -139.500000, -454.500000,  -3.828967, -91.019336, -179.423168,  -0.020305,  -0.026999,   0.712809,  -0.700475, 
18256,   0.964742,  -9.716358,  -0.168338,   0.649901,   1.065210, -59.008448,  -0.040262,   1.073638,  -0.825790, -286.500000, -142.500000, -450.000000,  -4.435015, -91.011184, -179.512112,  -0.024617,  -0.030150,   0.712632,  -0.700396, 
18257,   0.984180,  -9.767000,  -0.165932,   0.681012,   1.075015, -61.536624,  -0.036835,   1.079339,  -0.830074, -285.000000, -141.000000, -451.500000,  -5.057295, -91.004712, -179.606752,  -0.029064,  -0.033365,   0.712439,  -0.700267, 
18258,   0.987743,  -9.822510,  -0.193419,   0.671825,   1.020191, -63.186428,  -0.041197,   1.096178,  -0.827116, -288.000000, -135.000000, -451.500000,  -5.686547, -90.999656, -179.711232,  -0.033614,  -0.036561,   0.712258,  -0.700113, 
18259,   0.944027,  -9.750916,  -0.146745,   0.745129,   1.071684, -63.911896,  -0.053456,   1.093921,  -0.798018, -294.000000, -133.500000, -442.500000,  -6.307504, -90.990392, -179.811904,  -0.038086,  -0.039731,   0.712016,  -0.699940, 
18260,   1.017879,  -9.867279,  -0.194274,   0.679978,   1.075607, -63.169888,  -0.068305,   1.087228,  -0.796975, -301.500000, -135.000000, -442.500000,  -6.914289, -90.985104, -179.900912,  -0.042398,  -0.042886,   0.711805,  -0.699744, 
18261,   1.147619,  -9.777165,  -0.139344,   0.648456,   1.051232, -62.729708,  -0.079025,   1.092301,  -0.808714, -307.500000, -133.500000, -447.000000,  -7.519736, -90.976440, -179.988352,  -0.046689,  -0.046042,   0.711542,  -0.699528, 
18262,   1.095299,  -9.798332,  -0.153256,   0.685443,   1.098571, -61.761476,  -0.090088,   1.095745,  -0.811378, -313.500000, -132.000000, -448.500000,  -8.104795, -90.967208, 179.929744,   0.050817,   0.049108,  -0.711273,   0.699306, 
18263,   1.155348,  -9.835596,  -0.194211,   0.634031,   1.023423, -59.458068,  -0.098611,   1.095205,  -0.814944, -318.000000, -132.000000, -450.000000,  -8.657595, -90.962968, 179.854880,   0.054702,   0.052019,  -0.711032,   0.699047, 
18264,   1.335063,  -9.765738,  -0.125217,   0.577630,   0.994908, -57.316328,  -0.102038,   1.089503,  -0.810660, -319.500000, -133.500000, -448.500000,  -9.201375, -90.954208, 179.769280,   0.058592,   0.054809,  -0.710752,   0.698786, 
18265,   1.118113,  -9.875574,  -0.223434,   0.537839,   0.982122, -53.628880,  -0.102584,   1.081447,  -0.816352, -319.500000, -136.500000, -450.000000,  -9.660707, -90.952120, 179.700096,   0.061861,   0.057183,  -0.710550,   0.698531, 
18266,   1.561676,  -9.709962,  -0.107753,   0.397303,   0.895027, -50.605284,  -0.101541,   1.089140,  -0.833925, -319.500000, -135.000000, -456.000000, -10.140271, -90.946384, 179.596160,   0.065462,   0.059466,  -0.710315,   0.698241, 
18267,   1.505408,  -9.720571,  -0.211589,   0.554499,   0.845142, -49.070784,  -0.100262,   1.108874,  -0.817425, -319.500000, -127.500000, -451.500000, -10.593585, -90.942296, 179.478192,   0.068986,   0.061500,  -0.710103,   0.697929, 
18268,   1.779988,  -9.622082,  -0.103443,   0.347142,   0.916739, -47.913340,  -0.106742,   1.104713,  -0.798627, -322.500000, -127.500000, -445.500000, -11.057353, -90.934528, 179.340560,   0.072691,   0.063480,  -0.709879,   0.697616, 
18269,   1.809379,  -9.659833,  -0.169151,   0.585251,   0.819489, -47.104044,  -0.118709,   1.095665,  -0.807561, -328.500000, -130.500000, -448.500000, -11.508204, -90.924976, 179.208640,   0.076278,   0.065416,  -0.709635,   0.697299, 
18270,   2.008823,  -9.686635,  -0.172994,   0.370567,   0.856664, -46.888164,  -0.118693,   1.098472,  -0.797908, -328.500000, -129.000000, -445.500000, -11.965572, -90.924192, 179.073856,   0.079924,   0.067369,  -0.709434,   0.696900, 
18271,   1.898325,  -9.556899,  -0.104680,   0.481517,   0.904349, -46.207272,  -0.126686,   1.103182,  -0.805434, -333.000000, -127.500000, -448.500000, -12.409798, -90.913720, 178.935408,   0.083505,   0.069226,  -0.709191,   0.696562, 
18272,   1.967576,  -9.679349,  -0.188051,   0.486246,   0.769564, -44.721412,  -0.149324,   1.107626,  -0.797149, -345.000000, -124.500000, -447.000000, -12.827210, -90.911112, 178.816896,   0.086802,   0.071037,  -0.708992,   0.696188, 
18273,   2.090646,  -9.583055,  -0.123330,   0.371408,   0.752206, -42.938884,  -0.148078,   1.121747,  -0.799954, -345.000000, -120.000000, -448.500000, -13.236728, -90.904680, 178.696304,   0.090057,   0.072790,  -0.708762,   0.695819, 
18274,   2.134645,  -9.573691,  -0.169619,   0.454656,   0.705102, -41.668172,  -0.133417,   1.124819,  -0.806112, -337.500000, -120.000000, -450.000000, -13.630610, -90.900392, 178.553856,   0.093349,   0.074310,  -0.708574,   0.695424, 
18275,   2.212626,  -9.516782,  -0.118835,   0.255294,   0.747952, -40.329352,  -0.138123,   1.099384,  -0.818328, -339.000000, -129.000000, -453.000000, -14.015718, -90.893776, 178.397632,   0.096666,   0.075695,  -0.708384,   0.695025, 
18276,   2.449354,  -9.570214,  -0.183205,   0.442782,   0.724426, -39.622768,  -0.147005,   1.094408,  -0.822471, -343.500000, -130.500000, -454.500000, -14.405467, -90.891496, 178.244480,   0.099992,   0.077121,  -0.708195,   0.694566, 
18277,   2.491096,  -9.428114,  -0.104895,   0.339480,   0.725455, -39.467236,  -0.161307,   1.095772,  -0.815736, -351.000000, -129.000000, -453.000000, -14.796798, -90.885512, 178.097648,   0.103285,   0.078599,  -0.707982,   0.694124, 
18278,   2.590150,  -9.452028,  -0.172042,   0.486108,   0.741458, -39.752528,  -0.170206,   1.087990,  -0.829531, -355.500000, -132.000000, -457.500000, -15.194020, -90.880608, 177.959360,   0.106562,   0.080166,  -0.707771,   0.693672, 
18279,   2.594619,  -9.480487,  -0.131307,   0.382174,   0.661934, -39.694168,  -0.166248,   1.098941,  -0.837775, -354.000000, -129.000000, -460.500000, -15.585054, -90.877624, 177.820016,   0.109807,   0.081687,  -0.707574,   0.693198, 
18280,   2.533734,  -9.448886,  -0.149444,   0.356239,   0.735863, -39.162260,  -0.163351,   1.099393,  -0.838099, -352.500000, -129.000000, -460.500000, -15.960889, -90.872984, 177.670352,   0.113016,   0.083052,  -0.707371,   0.692713, 
18281,   2.621303,  -9.443315,  -0.159411,   0.412871,   0.645621, -37.640224,  -0.157367,   1.103917,  -0.833632, -349.500000, -127.500000, -459.000000, -16.320463, -90.869456, 177.509056,   0.116195,   0.084246,  -0.707201,   0.692220, 
18282,   2.764044,  -9.400801,  -0.134121,   0.360592,   0.675570, -37.022360,  -0.160607,   1.101836,  -0.824233, -351.000000, -127.500000, -456.000000, -16.680874, -90.864928, 177.332752,   0.119468,   0.085355,  -0.707043,   0.691711, 
18283,   2.858983,  -9.343884,  -0.123932,   0.291728,   0.703742, -36.761528,  -0.166590,   1.097312,  -0.828700, -354.000000, -129.000000, -457.500000, -17.047300, -90.859616, 177.153280,   0.122792,   0.086481,  -0.706869,   0.691174, 
18284,   2.835115,  -9.328413,  -0.129411,   0.436639,   0.670043, -36.325384,  -0.178387,   1.089079,  -0.842172, -360.000000, -132.000000, -462.000000, -17.401380, -90.852024, 176.986704,   0.125956,   0.087613,  -0.706663,   0.690649, 
18285,   2.933117,  -9.407942,  -0.158833,   0.194950,   0.656113, -35.675576,  -0.184354,   1.087361,  -0.836986, -363.000000, -132.000000, -460.500000, -17.747918, -90.851968, 176.832528,   0.129003,   0.088767,  -0.706505,   0.690092, 
18286,   2.949586,  -9.304109,  -0.101984,   0.322089,   0.651800, -34.716928,  -0.183433,   1.102660,  -0.821064, -363.000000, -126.000000, -456.000000, -18.083972, -90.846600, 176.670832,   0.132027,   0.089818,  -0.706335,   0.689566, 
18287,   3.112312,  -9.276920,  -0.142064,   0.303715,   0.609704, -34.256624,  -0.188324,   1.114249,  -0.814146, -366.000000, -121.500000, -454.500000, -18.425822, -90.843888, 176.494368,   0.135173,   0.090810,  -0.706183,   0.688983, 
18288,   3.148220,  -9.271780,  -0.124678,   0.253286,   0.707280, -34.333772,  -0.201196,   1.092709,  -0.829350, -372.000000, -129.000000, -459.000000, -18.767058, -90.839208, 176.325920,   0.138262,   0.091849,  -0.706005,   0.688401, 
18289,   3.292909,  -9.215649,  -0.117659,   0.237272,   0.685407, -35.143712,  -0.208238,   1.077685,  -0.825897, -375.000000, -133.500000, -457.500000, -19.127248, -90.835256, 176.168464,   0.141400,   0.093071,  -0.705813,   0.687800, 
18290,   3.410532,  -9.171243,  -0.101998,   0.384543,   0.671931, -35.977808,  -0.204077,   1.095064,  -0.819373, -373.500000, -127.500000, -456.000000, -19.502742, -90.826432, 176.000496,   0.144688,   0.094329,  -0.705593,   0.687190, 
18291,   3.499162,  -9.212904,  -0.136186,   0.378069,   0.683763, -37.152560,  -0.216386,   1.084387,  -0.819232, -379.500000, -130.500000, -456.000000, -19.889896, -90.820736, 175.829888,   0.148062,   0.095636,  -0.705377,   0.686522, 
18292,   3.541438,  -9.112700,  -0.092130,   0.364870,   0.744873, -39.135896,  -0.223600,   1.068548,  -0.811242, -382.500000, -135.000000, -453.000000, -20.299444, -90.812784, 175.668064,   0.151510,   0.097135,  -0.705105,   0.685821, 
18293,   3.576717,  -9.141768,  -0.108412,   0.409687,   0.738974, -40.275592,  -0.219113,   1.084750,  -0.823446, -381.000000, -130.500000, -457.500000, -20.713854, -90.805248, 175.504448,   0.154997,   0.098652,  -0.704836,   0.685097, 
18294,   3.612754,  -9.144239,  -0.129391,   0.488038,   0.680507, -41.241792,  -0.214627,   1.100951,  -0.835649, -379.500000, -126.000000, -462.000000, -21.130170, -90.800136, 175.324208,   0.158594,   0.100077,  -0.704599,   0.684323, 
18295,   3.515544,  -9.153923,  -0.112417,   0.428933,   0.760043, -41.371580,  -0.218755,   1.089185,  -0.822868, -381.000000, -129.000000, -457.500000, -21.537060, -90.794328, 175.141072,   0.162142,   0.101425,  -0.704348,   0.683527, 
18296,   3.504387,  -9.113094,  -0.116603,   0.470387,   0.755347, -40.527020,  -0.233774,   1.081678,  -0.817288, -388.500000, -130.500000, -456.000000, -21.927014, -90.789472, 174.973264,   0.165496,   0.102764,  -0.704112,   0.682763, 
18297,   3.628440,  -9.150155,  -0.159966,   0.373655,   0.725909, -39.362412,  -0.235613,   1.091726,  -0.824884, -390.000000, -127.500000, -459.000000, -22.306016, -90.787800, 174.810512,   0.168754,   0.104065,  -0.703907,   0.681996, 
18298,   3.651444,  -9.078214,  -0.127877,   0.345713,   0.650198, -38.519880,  -0.238528,   1.088468,  -0.834213, -391.500000, -129.000000, -462.000000, -22.678108, -90.785544, 174.642544,   0.171996,   0.105292,  -0.703704,   0.681215, 
18299,   3.715039,  -9.047939,  -0.092825,   0.373149,   0.700647, -37.527516,  -0.250991,   1.079783,  -0.819882, -397.500000, -130.500000, -457.500000, -23.036206, -90.779336, 174.481568,   0.175104,   0.106482,  -0.703475,   0.680469, 
18300,   3.810476,  -9.043386,  -0.136701,   0.428453,   0.659661, -36.621560,  -0.251659,   1.079332,  -0.792079, -397.500000, -129.000000, -448.500000, -23.392232, -90.775488, 174.320976,   0.178196,   0.107659,  -0.703264,   0.679703, 
18301,   3.887344,  -9.023377,  -0.118803,   0.324396,   0.669125, -35.973688,  -0.249307,   1.071727,  -0.798096, -396.000000, -132.000000, -450.000000, -23.741190, -90.773144, 174.153248,   0.181286,   0.108747,  -0.703073,   0.678913, 
18302,   3.946321,  -8.905198,  -0.065955,   0.272301,   0.719896, -35.342880,  -0.252751,   1.063219,  -0.803464, -397.500000, -135.000000, -451.500000, -24.091884, -90.765424, 173.985280,   0.184378,   0.109852,  -0.702842,   0.678133, 
18303,   3.938234,  -8.996207,  -0.151454,   0.351993,   0.604777, -34.620732,  -0.258172,   1.069558,  -0.792586, -400.500000, -132.000000, -448.500000, -24.425602, -90.762912, 173.820752,   0.187347,   0.110866,  -0.702648,   0.677337, 
18304,   4.032275,  -8.941406,  -0.166847,   0.276807,   0.622468, -33.508244,  -0.258017,   1.067566,  -0.806776, -400.500000, -133.500000, -453.000000, -24.750470, -90.763536, 173.655136,   0.190271,   0.111815,  -0.702489,   0.676528, 
18305,   4.084786,  -8.860277,  -0.125613,   0.348972,   0.638539, -32.647502,  -0.277619,   1.067663,  -0.822658, -411.000000, -133.500000, -459.000000, -25.070312, -90.759520, 173.508640,   0.193047,   0.112860,  -0.702294,   0.675783, 
18306,   4.246563,  -8.835403,  -0.119145,   0.292271,   0.618538, -32.524708,  -0.285938,   1.073551,  -0.811456, -415.500000, -130.500000, -456.000000, -25.395824, -90.756256, 173.358048,   0.195877,   0.113913,  -0.702101,   0.675005, 
18307,   4.214117,  -8.858231,  -0.096320,   0.447642,   0.583002, -32.639664,  -0.277928,   1.071647,  -0.794278, -411.000000, -130.500000, -450.000000, -25.719250, -90.749440, 173.188752,   0.198796,   0.114843,  -0.701896,   0.674199, 
18308,   4.187997,  -8.816818,  -0.134913,   0.291205,   0.603491, -31.985402,  -0.283895,   1.069930,  -0.789093, -414.000000, -130.500000, -448.500000, -26.026570, -90.749920, 173.031312,   0.201554,   0.115737,  -0.701743,   0.673390, 
18309,   4.268710,  -8.795446,  -0.081182,   0.315378,   0.574722, -31.217856,  -0.289537,   1.067035,  -0.802634, -417.000000, -132.000000, -453.000000, -26.330604, -90.741888, 172.874304,   0.204278,   0.116628,  -0.701541,   0.672629, 
18310,   4.305513,  -8.832601,  -0.165917,   0.330744,   0.568038, -30.192792,  -0.285751,   1.077172,  -0.806341, -415.500000, -129.000000, -454.500000, -26.622798, -90.742432, 172.707840,   0.206993,   0.117375,  -0.701412,   0.671808, 
18311,   4.432321,  -8.671112,  -0.072009,   0.136911,   0.584093, -29.455854,  -0.288649,   1.076720,  -0.806017, -417.000000, -129.000000, -454.500000, -26.917060, -90.737568, 172.531968,   0.209764,   0.118085,  -0.701249,   0.670981, 
18312,   4.568008,  -8.681280,  -0.124906,   0.313135,   0.633584, -29.556504,  -0.294307,   1.071018,  -0.829212, -420.000000, -132.000000, -462.000000, -27.224552, -90.732296, 172.360736,   0.212582,   0.118904,  -0.701062,   0.670128, 
18313,   4.747012,  -8.639722,  -0.124724,   0.155585,   0.728361, -30.621218,  -0.291784,   1.064228,  -0.839766, -418.500000, -135.000000, -465.000000, -27.550656, -90.730248, 172.184016,   0.215543,   0.119797,  -0.700886,   0.669205, 
18314,   4.835249,  -8.535305,  -0.079142,   0.353046,   0.653014, -32.714890,  -0.292451,   1.063777,  -0.811963, -418.500000, -133.500000, -456.000000, -27.907950, -90.721936, 171.987904,   0.218794,   0.120773,  -0.700668,   0.668219, 
18315,   4.843270,  -8.569197,  -0.126057,   0.368353,   0.658404, -34.952248,  -0.306037,   1.074011,  -0.804073, -426.000000, -129.000000, -454.500000, -28.279512, -90.717904, 171.800672,   0.222075,   0.121881,  -0.700445,   0.667179, 
18316,   4.836253,  -8.602021,  -0.113410,   0.308483,   0.686664, -36.613696,  -0.314218,   1.075100,  -0.816713, -430.500000, -129.000000, -459.000000, -28.658922, -90.713704, 171.624560,   0.225331,   0.123104,  -0.700192,   0.666124, 
18317,   4.775383,  -8.580027,  -0.085652,   0.365431,   0.725372, -37.333764,  -0.310043,   1.054640,  -0.824787, -427.500000, -136.500000, -460.500000, -29.031954, -90.707632, 171.458656,   0.228483,   0.124354,  -0.699923,   0.665098, 
18318,   4.799371,  -8.524513,  -0.084714,   0.386958,   0.682814, -37.335248,  -0.313267,   1.055366,  -0.805735, -429.000000, -135.000000, -454.500000, -29.402374, -90.699208, 171.286592,   0.231648,   0.125556,  -0.699652,   0.664068, 
18319,   4.817195,  -8.567507,  -0.130447,   0.447807,   0.632299, -36.939976,  -0.306224,   1.070390,  -0.809188, -426.000000, -130.500000, -456.000000, -29.765562, -90.694672, 171.094368,   0.234884,   0.126582,  -0.699423,   0.662964, 
18320,   4.815175,  -8.493232,  -0.098739,   0.325593,   0.732656, -36.308092,  -0.320560,   1.066141,  -0.821758, -433.500000, -132.000000, -460.500000, -30.117640, -90.691192, 170.923200,   0.237928,   0.127667,  -0.699186,   0.661904, 
18321,   4.894923,  -8.444970,  -0.096735,   0.391859,   0.623887, -35.509588,  -0.326714,   1.060802,  -0.821688, -436.500000, -133.500000, -460.500000, -30.465814, -90.685736, 170.755024,   0.240928,   0.128753,  -0.698946,   0.660864, 
18322,   4.909389,  -8.491792,  -0.125183,   0.373888,   0.678328, -34.724592,  -0.323458,   1.065689,  -0.821434, -435.000000, -132.000000, -460.500000, -30.799934, -90.682960, 170.578224,   0.243897,   0.129696,  -0.698753,   0.659813, 
18323,   4.967451,  -8.408542,  -0.072038,   0.190197,   0.617926, -33.663024,  -0.329954,   1.058722,  -0.812289, -438.000000, -133.500000, -457.500000, -31.123186, -90.679960, 170.406768,   0.246764,   0.130607,  -0.698557,   0.658779, 
18324,   5.040634,  -8.369423,  -0.117630,   0.360950,   0.600104, -32.620006,  -0.332339,   1.060714,  -0.825577, -439.500000, -133.500000, -462.000000, -31.443228, -90.675496, 170.231648,   0.249625,   0.131477,  -0.698356,   0.657737, 
18325,   5.246206,  -8.315037,  -0.117110,   0.310552,   0.639413, -32.493186,  -0.335612,   1.053020,  -0.835483, -441.000000, -136.500000, -465.000000, -31.773058, -90.673232, 170.059264,   0.252526,   0.132419,  -0.698152,   0.656654, 
18326,   5.343917,  -8.230045,  -0.098750,   0.225075,   0.659896, -33.168732,  -0.336500,   1.043334,  -0.832101, -441.000000, -139.500000, -463.500000, -32.120854, -90.669368, 169.882080,   0.255552,   0.133444,  -0.697924,   0.655519, 
18327,   5.433273,  -8.202667,  -0.080360,   0.295854,   0.653319, -34.429992,  -0.343013,   1.033561,  -0.832608, -444.000000, -142.500000, -463.500000, -32.482144, -90.662120, 169.711312,   0.258610,   0.134596,  -0.697650,   0.654373, 
18328,   5.501006,  -8.210601,  -0.092844,   0.384626,   0.653341, -36.134788,  -0.348809,   1.032658,  -0.831959, -447.000000, -142.500000, -463.500000, -32.858600, -90.655976, 169.543280,   0.261732,   0.135852,  -0.697350,   0.653171, 
18329,   5.500004,  -8.175134,  -0.095778,   0.370417,   0.690066, -37.666008,  -0.351707,   1.032206,  -0.831635, -448.500000, -142.500000, -463.500000, -33.246716, -90.650608, 169.374896,   0.264922,   0.137176,  -0.697047,   0.651931, 
18330,   5.532994,  -8.136929,  -0.057146,   0.459084,   0.745414, -38.986896,  -0.357845,   1.029674,  -0.821913, -451.500000, -142.500000, -460.500000, -33.644068, -90.640536, 169.205184,   0.268164,   0.138560,  -0.696716,   0.650688, 
18331,   5.681824,  -8.125061,  -0.090258,   0.392527,   0.738968, -40.284488,  -0.357657,   1.033295,  -0.816798, -451.500000, -141.000000, -459.000000, -34.061980, -90.632792, 169.022400,   0.271589,   0.139980,  -0.696373,   0.649324, 
18332,   5.713954,  -8.056049,  -0.092332,   0.361227,   0.757141, -41.972880,  -0.357862,   1.026868,  -0.831565, -451.500000, -144.000000, -463.500000, -34.494176, -90.626912, 168.842720,   0.275074,   0.141502,  -0.696019,   0.647907, 
18333,   5.703292,  -8.028239,  -0.088261,   0.518054,   0.786488, -43.128124,  -0.363503,   1.023973,  -0.845107, -454.500000, -145.500000, -468.000000, -34.932192, -90.621120, 168.672768,   0.278532,   0.143118,  -0.695649,   0.646485, 
18334,   5.776627,  -8.029031,  -0.139650,   0.468025,   0.781998, -44.033864,  -0.369812,   1.020626,  -0.830847, -457.500000, -145.500000, -463.500000, -35.377448, -90.617512, 168.503424,   0.282018,   0.144773,  -0.695265,   0.645006, 
18335,   5.775597,  -7.975298,  -0.114834,   0.410133,   0.894462, -44.685220,  -0.378677,   1.018457,  -0.825337, -462.000000, -145.500000, -462.000000, -35.824824, -90.614944, 168.339312,   0.285478,   0.146468,  -0.694870,   0.643505, 
18336,   5.643015,  -7.942981,  -0.044980,   0.495542,   0.886525, -44.458140,  -0.391562,   1.034756,  -0.825945, -469.500000, -139.500000, -463.500000, -36.256540, -90.605776, 168.171360,   0.288859,   0.148065,  -0.694470,   0.642065, 
18337,   5.657951,  -7.994360,  -0.095068,   0.303238,   0.805737, -42.938684,  -0.394990,   1.029055,  -0.821661, -471.000000, -141.000000, -462.000000, -36.660280, -90.603176, 168.015856,   0.292013,   0.149552,  -0.694128,   0.640674, 
18338,   5.718786,  -7.913105,  -0.069182,   0.333740,   0.744191, -41.033488,  -0.400226,   0.998369,  -0.829916, -472.500000, -151.500000, -463.500000, -37.047720, -90.601040, 167.888400,   0.294907,   0.151108,  -0.693756,   0.639367, 
18339,   5.743059,  -7.867673,  -0.084315,   0.296506,   0.753170, -39.284452,  -0.406210,   0.993845,  -0.834384, -475.500000, -153.000000, -465.000000, -37.415104, -90.597000, 167.765840,   0.297656,   0.152578,  -0.693400,   0.638130, 
18340,   6.002344,  -7.796621,  -0.089416,   0.224054,   0.627411, -37.807984,  -0.411835,   0.993757,  -0.838273, -478.500000, -153.000000, -466.500000, -37.782280, -90.592352, 167.637072,   0.300436,   0.154014,  -0.693054,   0.636877, 
18341,   6.173093,  -7.674433,  -0.070355,   0.319528,   0.697394, -37.997160,  -0.411493,   0.995386,  -0.847348, -478.500000, -153.000000, -469.500000, -38.172304, -90.586560, 167.489632,   0.303438,   0.155474,  -0.692688,   0.635505, 
18342,   6.281863,  -7.626397,  -0.081905,   0.365102,   0.753326, -39.222776,  -0.410947,   1.003442,  -0.841656, -478.500000, -150.000000, -468.000000, -38.576792, -90.579608, 167.321904,   0.306622,   0.156900,  -0.692313,   0.634027, 
18343,   6.327658,  -7.578716,  -0.082121,   0.461954,   0.727393, -40.779996,  -0.411118,   1.002628,  -0.837118, -478.500000, -150.000000, -466.500000, -38.999328, -90.572024, 167.144976,   0.309948,   0.158379,  -0.691919,   0.632464, 
18344,   6.411649,  -7.580197,  -0.104512,   0.404812,   0.773376, -42.259308,  -0.412039,   0.987329,  -0.853041, -478.500000, -156.000000, -471.000000, -39.434160, -90.567512, 166.984736,   0.313250,   0.160026,  -0.691506,   0.630883, 
18345,   6.530768,  -7.442507,  -0.046875,   0.399879,   0.807955, -44.208204,  -0.415466,   0.981628,  -0.848757, -480.000000, -157.500000, -469.500000, -39.898544, -90.556752, 166.814144,   0.316748,   0.161800,  -0.691009,   0.629198, 
18346,   6.505660,  -7.474220,  -0.098428,   0.567220,   0.849671, -46.424872,  -0.420716,   0.988781,  -0.842416, -483.000000, -154.500000, -468.000000, -40.374252, -90.549152, 166.638480,   0.320337,   0.163605,  -0.690529,   0.627440, 
18347,   6.481833,  -7.446349,  -0.098587,   0.397141,   0.817433, -47.593508,  -0.430315,   0.974935,  -0.847714, -487.500000, -159.000000, -469.500000, -40.852080, -90.545544, 166.483360,   0.323824,   0.165536,  -0.690042,   0.625697, 
18348,   6.430234,  -7.414325,  -0.047015,   0.509337,   0.842941, -47.774584,  -0.436828,   0.965161,  -0.848221, -490.500000, -162.000000, -469.500000, -41.323444, -90.536408, 166.334864,   0.327214,   0.167479,  -0.689503,   0.623991, 
18349,   6.425113,  -7.408882,  -0.103115,   0.439256,   0.810699, -47.149320,  -0.452173,   0.958831,  -0.823914, -498.000000, -162.000000, -462.000000, -41.778352, -90.532576, 166.202224,   0.330431,   0.169406,  -0.689000,   0.622338, 
18350,   6.483318,  -7.354839,  -0.056021,   0.522545,   0.754301, -45.957100,  -0.454883,   0.962000,  -0.818475, -499.500000, -160.500000, -460.500000, -42.220344, -90.527384, 166.067648,   0.333581,   0.171250,  -0.688517,   0.620717, 
18351,   6.535365,  -7.265800,  -0.066786,   0.426020,   0.760891, -44.704828,  -0.448387,   0.968968,  -0.827620, -496.500000, -159.000000, -463.500000, -42.650412, -90.523544, 165.919632,   0.336723,   0.172933,  -0.688054,   0.619049, 
18352,   6.649065,  -7.198857,  -0.086548,   0.399171,   0.782639, -43.938876,  -0.453124,   0.978565,  -0.834892, -499.500000, -156.000000, -466.500000, -43.081284, -90.517736, 165.752080,   0.339963,   0.174507,  -0.687606,   0.617318, 
18353,   6.701904,  -7.188414,  -0.097361,   0.431799,   0.714537, -43.321820,  -0.458749,   0.978476,  -0.838781, -502.500000, -156.000000, -468.000000, -43.505712, -90.515896, 165.583168,   0.343177,   0.176026,  -0.687199,   0.615571, 
18354,   6.842751,  -7.051927,  -0.076152,   0.242265,   0.707704, -43.002016,  -0.460337,   0.962726,  -0.826902, -502.500000, -160.500000, -463.500000, -43.933340, -90.511840, 165.411696,   0.346403,   0.177551,  -0.686762,   0.613791, 
18355,   6.970725,  -6.971528,  -0.055078,   0.501069,   0.712611, -43.669200,  -0.462893,   0.963904,  -0.835653, -504.000000, -160.500000, -466.500000, -44.379548, -90.501864, 165.230688,   0.349764,   0.179148,  -0.686280,   0.611948, 
18356,   7.069596,  -6.968834,  -0.094733,   0.471170,   0.852646, -44.911564,  -0.471416,   0.963364,  -0.839218, -508.500000, -160.500000, -468.000000, -44.835816, -90.496816, 165.054256,   0.353157,   0.180820,  -0.685810,   0.610051, 
18357,   7.272213,  -6.814450,  -0.016134,   0.344208,   0.803566, -46.845892,  -0.483896,   0.951872,  -0.834540, -514.500000, -163.500000, -466.500000, -45.325916, -90.483112, 164.871168,   0.356738,   0.182676,  -0.685236,   0.608054, 
18358,   7.367698,  -6.756884,  -0.038858,   0.471989,   0.842887, -49.940100,  -0.494725,   0.926711,  -0.827380, -519.000000, -171.000000, -463.500000, -45.849760, -90.467504, 164.703280,   0.360404,   0.184830,  -0.684570,   0.605990, 
18359,   7.396179,  -6.764616,  -0.074192,   0.510114,   0.914908, -52.864520,  -0.501767,   0.911687,  -0.823927, -522.000000, -175.500000, -462.000000, -46.396016, -90.459376, 164.562272,   0.364053,   0.187256,  -0.683872,   0.603888, 
18360,   7.372336,  -6.689131,  -0.045072,   0.482114,   0.990913, -55.035348,  -0.503435,   0.922550,  -0.836061, -523.500000, -172.500000, -466.500000, -46.958120, -90.446856, 164.418752,   0.367763,   0.189765,  -0.683088,   0.601704, 
18361,   7.434535,  -6.627130,  -0.049026,   0.543688,   0.991581, -57.014092,  -0.510866,   0.938123,  -0.828241, -528.000000, -166.500000, -465.000000, -47.538688, -90.433584, 164.255536,   0.371666,   0.192271,  -0.682309,   0.599391, 
18362,   7.422427,  -6.592137,  -0.055649,   0.648327,   0.972285, -58.623320,  -0.512300,   0.920381,  -0.830551, -528.000000, -172.500000, -465.000000, -48.126168, -90.424136, 164.093904,   0.375585,   0.194812,  -0.681522,   0.597009, 
18363,   7.472191,  -6.516218,  -0.032145,   0.599972,   1.031777, -59.580132,  -0.507596,   0.905171,  -0.842584, -525.000000, -178.500000, -468.000000, -48.720796, -90.410824, 163.938576,   0.379485,   0.197443,  -0.680683,   0.594621, 
18364,   7.568369,  -6.395738,  -0.062821,   0.591087,   1.001370, -60.704416,  -0.512504,   0.913954,  -0.845319, -528.000000, -175.500000, -469.500000, -49.332400, -90.398800, 163.776512,   0.383500,   0.200131,  -0.679834,   0.592132, 
18365,   7.537528,  -6.410677,  -0.047520,   0.697732,   1.021377, -61.580908,  -0.525001,   0.899656,  -0.850293, -534.000000, -180.000000, -471.000000, -49.943640, -90.387296, 163.621232,   0.387452,   0.202849,  -0.678951,   0.589622, 
18366,   7.528711,  -6.340419,  -0.064653,   0.492947,   1.014534, -61.269988,  -0.537668,   0.884543,  -0.850729, -540.000000, -184.500000, -471.000000, -50.538096, -90.380648, 163.495424,   0.391170,   0.205630,  -0.678080,   0.587231, 
18367,   7.592836,  -6.221299,  -0.000356,   0.663158,   1.132152, -60.804764,  -0.541471,   0.871600,  -0.856675, -541.500000, -189.000000, -472.500000, -51.136760, -90.365528, 163.370416,   0.394863,   0.208461,  -0.677128,   0.584841, 
18368,   7.511677,  -6.256783,  -0.090952,   0.666611,   1.077014, -59.789396,  -0.536596,   0.857204,  -0.873245, -538.500000, -195.000000, -477.000000, -51.709852, -90.361064, 163.271488,   0.398302,   0.211259,  -0.676229,   0.582553, 
18369,   7.431308,  -6.191043,  -0.029277,   0.440496,   0.964770, -57.085328,  -0.542375,   0.859108,  -0.862945, -541.500000, -193.500000, -474.000000, -52.243532, -90.355904, 163.176880,   0.401503,   0.213851,  -0.675383,   0.580401, 
18370,   7.468690,  -6.086498,  -0.048665,   0.555833,   0.958053, -53.689064,  -0.556881,   0.854044,  -0.870978, -549.000000, -195.000000, -477.000000, -52.747060, -90.349584, 163.081264,   0.404536,   0.216259,  -0.674569,   0.578332, 
18371,   7.487179,  -6.058288,  -0.040574,   0.496811,   0.892807, -50.219368,  -0.554701,   0.845624,  -0.872457, -547.500000, -198.000000, -477.000000, -53.211932, -90.345464, 162.994880,   0.407324,   0.218487,  -0.673823,   0.576412, 
18372,   7.489477,  -5.966327,  -0.031117,   0.366078,   0.814837, -46.174360,  -0.551786,   0.848882,  -0.863128, -546.000000, -196.500000, -474.000000, -53.638232, -90.340384, 162.898592,   0.409952,   0.220431,  -0.673154,   0.574582, 
18373,   7.562282,  -5.880185,  -0.010974,   0.335653,   0.756624, -42.086308,  -0.552332,   0.840826,  -0.868821, -546.000000, -199.500000, -475.500000, -54.027816, -90.334472, 162.792784,   0.412430,   0.222104,  -0.672560,   0.572836, 
18374,   7.719358,  -5.821728,  -0.047141,   0.360458,   0.749776, -38.756792,  -0.568427,   0.820012,  -0.864973, -553.500000, -205.500000, -474.000000, -54.390340, -90.332392, 162.705072,   0.414685,   0.223714,  -0.672008,   0.571227, 
18375,   7.838902,  -5.701654,  -0.015873,   0.179218,   0.688370, -36.336600,  -0.576559,   0.829520,  -0.848656, -558.000000, -201.000000, -469.500000, -54.738632, -90.329456, 162.615776,   0.416874,   0.225235,  -0.671485,   0.569666, 
18376,   7.831885,  -5.673576,  -0.022595,   0.306283,   0.669795, -34.295176,  -0.574954,   0.848077,  -0.850884, -558.000000, -195.000000, -471.000000, -55.065112, -90.321680, 162.499888,   0.419063,   0.226486,  -0.671021,   0.568099, 
18377,   7.917979,  -5.618593,  -0.047686,   0.231911,   0.665280, -32.106796,  -0.576217,   0.831149,  -0.857731, -558.000000, -201.000000, -472.500000, -55.373916, -90.322392, 162.386528,   0.421161,   0.227617,  -0.670625,   0.566546, 
18378,   7.897958,  -5.570882,  -0.026753,   0.236596,   0.566164, -29.826400,  -0.572197,   0.812681,  -0.851614, -555.000000, -207.000000, -469.500000, -55.660872, -90.318680, 162.330864,   0.422855,   0.228976,  -0.670140,   0.565309, 
18379,   7.996888,  -5.510837,  -0.012205,   0.197912,   0.544081, -27.966722,  -0.583105,   0.814133,  -0.868468, -561.000000, -207.000000, -475.500000, -55.933468, -90.310128, 162.280480,   0.424441,   0.230301,  -0.669651,   0.564171, 
18380,   8.147252,  -5.460555,  -0.015377,   0.132633,   0.580994, -26.957248,  -0.588013,   0.822916,  -0.871202, -564.000000, -204.000000, -477.000000, -56.203924, -90.301696, 162.176000,   0.426282,   0.231297,  -0.669278,   0.562838, 
18381,   8.232610,  -5.368760,  -0.026875,   0.092595,   0.523825, -26.749832,  -0.593216,   0.797843,  -0.860154, -565.500000, -211.500000, -472.500000, -56.479260, -90.295056, 162.117760,   0.427910,   0.232581,  -0.668797,   0.561633, 
18382,   8.280102,  -5.313462,   0.004794,   0.136407,   0.530189, -27.227898,  -0.599558,   0.788884,  -0.865198, -568.500000, -214.500000, -474.000000, -56.762024, -90.282560, 162.107456,   0.429326,   0.234209,  -0.668171,   0.560609, 
18383,   8.327666,  -5.317689,  -0.050329,   0.265784,   0.509804, -27.679388,  -0.601756,   0.794497,  -0.873371, -570.000000, -213.000000, -477.000000, -57.046360, -90.277360, 162.104432,   0.430727,   0.235861,  -0.667563,   0.559563, 
18384,   8.407166,  -5.233526,  -0.040826,   0.113168,   0.577467, -28.437026,  -0.604108,   0.802102,  -0.867355, -571.500000, -210.000000, -475.500000, -57.340216, -90.273672, 162.101696,   0.432177,   0.237564,  -0.666942,   0.558474, 
18385,   8.484810,  -5.136997,  -0.003002,   0.133287,   0.577511, -30.168686,  -0.603766,   0.803730,  -0.876430, -571.500000, -210.000000, -478.500000, -57.660552, -90.258888, 162.089536,   0.433780,   0.239409,  -0.666232,   0.557315, 
18386,   8.478375,  -5.135134,  -0.037278,   0.290596,   0.568704, -31.829374,  -0.611321,   0.786263,  -0.859365, -574.500000, -214.500000, -472.500000, -57.996708, -90.249840, 162.082432,   0.435431,   0.241345,  -0.665483,   0.556061, 
18387,   8.348093,  -5.174213,  -0.029423,   0.222402,   0.567308, -32.134754,  -0.609515,   0.770602,  -0.871074, -573.000000, -220.500000, -475.500000, -58.317308, -90.243888, 162.079200,   0.436994,   0.243202,  -0.664775,   0.554863, 
18388,   8.287885,  -5.081851,   0.006190,   0.204380,   0.560798, -31.673808,  -0.604094,   0.764263,  -0.881951, -570.000000, -223.500000, -478.500000, -58.630948, -90.232976, 162.070768,   0.438538,   0.245008,  -0.664069,   0.553701, 
18389,   8.243511,  -5.128264,  -0.042565,   0.382459,   0.603995, -30.095850,  -0.612943,   0.764900,  -0.866790, -574.500000, -222.000000, -474.000000, -58.923784, -90.226448, 162.067056,   0.439966,   0.246704,  -0.663419,   0.552610, 
18390,   8.238753,  -5.113487,  -0.033738,   0.240897,   0.497998, -28.262968,  -0.621637,   0.763546,  -0.865818, -579.000000, -222.000000, -474.000000, -59.188864, -90.223696, 162.066560,   0.441246,   0.248241,  -0.662831,   0.551607, 
18391,   8.257237,  -4.990113,  -0.003418,   0.100201,   0.499332, -26.315036,  -0.623459,   0.776401,  -0.863761, -580.500000, -217.500000, -474.000000, -59.444148, -90.218936, 162.063232,   0.442482,   0.249709,  -0.662251,   0.550635, 
18392,   8.220567,  -5.011240,  -0.002525,   0.182732,   0.546107, -24.076640,  -0.624005,   0.768344,  -0.869454, -580.500000, -220.500000, -475.500000, -59.675352, -90.211064, 162.056944,   0.443608,   0.251034,  -0.661717,   0.549762, 
18393,   8.213369,  -5.060744,  -0.059268,   0.125671,   0.499141, -21.092992,  -0.618926,   0.760376,  -0.871257, -577.500000, -223.500000, -475.500000, -59.861600, -90.219616, 162.065184,   0.444484,   0.252120,  -0.661328,   0.549025, 
18394,   8.233882,  -4.844116,   0.028376,  -0.111863,   0.434699, -18.129050,  -0.621466,   0.764360,  -0.870355, -579.000000, -222.000000, -475.500000, -60.037996, -90.212968, 162.058064,   0.445354,   0.253120,  -0.660922,   0.548354, 
18395,   8.335096,  -4.918848,  -0.044690,   0.209316,   0.358115, -15.550802,  -0.624518,   0.765901,  -0.855841, -580.500000, -220.500000, -471.000000, -60.188036, -90.210272, 162.056608,   0.446077,   0.253985,  -0.660581,   0.547783, 
18396,   8.384964,  -4.874184,  -0.020682,  -0.042416,   0.394532, -13.751420,  -0.625748,   0.754586,  -0.843384, -580.500000, -223.500000, -466.500000, -60.316532, -90.213952, 162.060112,   0.446687,   0.254731,  -0.660307,   0.547279, 
18397,   8.407459,  -4.816354,  -0.025786,  -0.028529,   0.322134, -12.238239,  -0.633758,   0.756490,  -0.860561, -585.000000, -223.500000, -472.500000, -60.436488, -90.209648, 162.056016,   0.447275,   0.255414,  -0.660030,   0.546824, 
18398,   8.445765,  -4.799430,   0.005199,   0.046743,   0.328161, -11.018892,  -0.631406,   0.748885,  -0.866578, -583.500000, -226.500000, -474.000000, -60.546500, -90.204464, 162.051536,   0.447811,   0.256040,  -0.659767,   0.546406, 
18399,   8.492595,  -4.801353,  -0.016289,  -0.092445,   0.324844,  -9.984834,  -0.628696,   0.745715,  -0.872017, -582.000000, -228.000000, -475.500000, -60.646220, -90.201680, 162.049344,   0.448291,   0.256609,  -0.659532,   0.546022, 
18400,   8.545357,  -4.698704,  -0.037662,  -0.059089,   0.318661,  -9.436291,  -0.629989,   0.763820,  -0.873921, -583.500000, -222.000000, -477.000000, -60.749008, -90.198488, 162.045552,   0.448792,   0.257189,  -0.659291,   0.545622, 
18401,   8.729994,  -4.668177,  -0.013838,   0.009547,   0.309522,  -9.453103,  -0.633775,   0.753683,  -0.870214, -585.000000, -225.000000, -475.500000, -60.862196, -90.191464, 162.039456,   0.449345,   0.257830,  -0.659014,   0.545195, 
18402,   8.767627,  -4.703760,  -0.027746,   0.072303,   0.328723, -10.896761,  -0.639962,   0.742732,  -0.889449, -588.000000, -229.500000, -481.500000, -60.984368, -90.186040, 162.034992,   0.449936,   0.258526,  -0.658720,   0.544729, 
18403,   8.800422,  -4.601111,  -0.005595,  -0.198517,   0.408780, -12.769455,  -0.634712,   0.735578,  -0.895789, -585.000000, -232.500000, -483.000000, -61.131588, -90.180680, 162.029776,   0.450651,   0.259360,  -0.658371,   0.544161, 
18404,   8.828540,  -4.581787,   0.028266,   0.165396,   0.397915, -14.741206,  -0.629429,   0.734038,  -0.882825, -582.000000, -232.500000, -478.500000, -61.302128, -90.163368, 162.014336,   0.451498,   0.260317,  -0.657936,   0.543531, 
18405,   8.793749,  -4.657134,  -0.053487,   0.099282,   0.371773, -16.413366,  -0.633604,   0.754498,  -0.874752, -585.000000, -225.000000, -477.000000, -61.475784, -90.161616, 162.013920,   0.452323,   0.261317,  -0.657534,   0.542857, 
18406,   8.725274,  -4.515155,   0.012787,  -0.053572,   0.385173, -17.346024,  -0.640271,   0.746716,  -0.861068, -588.000000, -226.500000, -472.500000, -61.665924, -90.151216, 162.004592,   0.453250,   0.262394,  -0.657074,   0.542133, 
18407,   8.686528,  -4.605380,  -0.004087,   0.247797,   0.418622, -17.629306,  -0.646254,   0.742192,  -0.865536, -591.000000, -228.000000, -474.000000, -61.849656, -90.137728, 161.993904,   0.454145,   0.263440,  -0.656617,   0.541447, 
18408,   8.722003,  -4.581888,  -0.003216,   0.041953,   0.418332, -17.779530,  -0.646100,   0.740200,  -0.879725, -591.000000, -229.500000, -478.500000, -62.027632, -90.133648, 161.990704,   0.454990,   0.264454,  -0.656190,   0.540750, 
18409,   8.802268,  -4.475841,  -0.005496,  -0.025789,   0.452210, -18.145196,  -0.644465,   0.723724,  -0.886897, -589.500000, -235.500000, -480.000000, -62.222576, -90.120872, 161.979248,   0.455934,   0.265552,  -0.655699,   0.540000, 
18410,   8.876013,  -4.434261,   0.036392,   0.259957,   0.480914, -19.368652,  -0.640337,   0.735489,  -0.899679, -588.000000, -232.500000, -484.500000, -62.434624, -90.101368, 161.962192,   0.456969,   0.266742,  -0.655151,   0.539199, 
18411,   8.901523,  -4.451900,  -0.031626,   0.228003,   0.436941, -21.033016,  -0.648811,   0.743369,  -0.874287, -592.500000, -228.000000, -477.000000, -62.657272, -90.090808, 161.954320,   0.458030,   0.268010,  -0.654599,   0.538340, 
18412,   8.856402,  -4.411705,   0.025048,   0.111208,   0.564149, -22.310408,  -0.650570,   0.726805,  -0.857869, -592.500000, -232.500000, -471.000000, -62.889656, -90.075672, 161.942080,   0.459147,   0.269327,  -0.654014,   0.537450, 
18413,   8.826018,  -4.393882,   0.005096,   0.247803,   0.520698, -23.212848,  -0.641909,   0.722546,  -0.878146, -588.000000, -235.500000, -477.000000, -63.129132, -90.057808, 161.927552,   0.460301,   0.270683,  -0.653405,   0.536539, 
18414,   8.860145,  -4.389252,   0.018009,   0.318444,   0.376814, -24.069450,  -0.641567,   0.724175,  -0.887221, -588.000000, -235.500000, -480.000000, -63.373360, -90.042408, 161.915952,   0.461465,   0.272071,  -0.652784,   0.535600, 
18415,   8.869830,  -4.339495,   0.039558,   0.530847,   0.289984, -24.915740,  -0.647346,   0.726079,  -0.876921, -591.000000, -234.000000, -477.000000, -63.625268, -90.020632, 161.900256,   0.462660,   0.273501,  -0.652114,   0.534642, 
18416,   8.885557,  -4.312598,   0.053071,   0.844111,   0.232406, -25.989574,  -0.647705,   0.721643,  -0.877498, -591.000000, -235.500000, -477.000000, -63.883636, -89.995736, 161.884256,   0.463878,   0.274979,  -0.651416,   0.533672, 
18417,   8.888920,  -4.273344,   0.016139,   1.028709,   0.128740, -26.854846,  -0.650962,   0.716756,  -0.877751, -592.500000, -237.000000, -477.000000, -64.152940, -89.974272, 161.873424,   0.465129,   0.276535,  -0.650694,   0.532659, 
18418,   8.894432,  -4.291791,  -0.033012,   1.146036,   0.144976, -27.301946,  -0.651850,   0.707071,  -0.874369, -592.500000, -240.000000, -475.500000, -64.419412, -89.966416, 161.877424,   0.466331,   0.278104,  -0.650007,   0.531639, 
18419,   8.901814,  -4.120079,   0.049913,   0.960848,   0.085576, -27.599010,  -0.646070,   0.705167,  -0.884670, -589.500000, -241.500000, -478.500000, -64.700096, -89.948960, 161.871776,   0.467619,   0.279738,  -0.649264,   0.530576, 
18420,   8.902081,  -4.150704,   0.029107,   1.481148,   0.070220, -27.856572,  -0.657629,   0.708974,  -0.864069, -595.500000, -238.500000, -472.500000, -64.982520, -89.923936, 161.861488,   0.468904,   0.281379,  -0.648476,   0.529514, 
18421,   8.983096,  -4.140192,  -0.044969,   1.144752,   0.074816, -28.076806,  -0.669221,   0.707168,  -0.862772, -601.500000, -238.500000, -472.500000, -65.255256, -89.928744, 161.878832,   0.470090,   0.283000,  -0.647781,   0.528437, 
18422,   9.107941,  -3.966007,   0.041391,   1.234275,   0.045811, -29.269602,  -0.670688,   0.683813,  -0.884388, -601.500000, -247.500000, -478.500000, -65.560432, -89.905304, 161.869152,   0.471480,   0.284768,  -0.646943,   0.527274, 
18423,   9.250055,  -3.952331,   0.038984,   1.479120,   0.063246, -31.755636,  -0.679382,   0.682459,  -0.883415, -606.000000, -247.500000, -478.500000, -65.890580, -89.879928, 161.859408,   0.472979,   0.286685,  -0.646035,   0.526019, 
18424,   9.159234,  -3.941890,  -0.010734,   1.723165,   0.047502, -33.963780,  -0.679895,   0.680015,  -0.869803, -606.000000, -247.500000, -474.000000, -66.236624, -89.859680, 161.856368,   0.474525,   0.288705,  -0.645085,   0.524689, 
18425,   9.058724,  -3.873798,   0.030267,   1.699415,   0.123969, -35.264252,  -0.668320,   0.679015,  -0.880751, -600.000000, -249.000000, -477.000000, -66.588524, -89.842264, 161.856592,   0.476078,   0.290759,  -0.644112,   0.523320, 
18426,   9.027156,  -3.839782,   0.026120,   1.931025,  -0.013424, -35.355036,  -0.665780,   0.675031,  -0.881653, -598.500000, -250.500000, -477.000000, -66.943640, -89.818952, 161.852208,   0.477652,   0.292830,  -0.643116,   0.521951, 
18427,   8.999334,  -3.883925,  -0.044149,   1.835297,   0.022395, -34.962856,  -0.672293,   0.665257,  -0.882160, -601.500000, -253.500000, -477.000000, -67.279336, -89.817384, 161.869360,   0.479094,   0.294823,  -0.642213,   0.520632, 
18428,   9.019164,  -3.747597,   0.043829,   1.663455,   0.028072, -34.312896,  -0.685741,   0.670693,  -0.898113, -609.000000, -252.000000, -483.000000, -67.616680, -89.794144, 161.864912,   0.480581,   0.296791,  -0.641255,   0.519330, 
18429,   9.118995,  -3.686446,  -0.009024,   1.870938,  -0.100277, -34.191048,  -0.694622,   0.665717,  -0.902256, -613.500000, -253.500000, -484.500000, -67.957992, -89.778232, 161.868048,   0.482058,   0.298786,  -0.640286,   0.517989, 
18430,   9.152983,  -3.635778,  -0.001130,   1.929868,   0.026810, -34.440528,  -0.689902,   0.653314,  -0.904636, -610.500000, -258.000000, -484.500000, -68.301752, -89.761720, 161.871360,   0.483542,   0.300799,  -0.639308,   0.516641, 
18431,   9.164135,  -3.587403,   0.018133,   1.903329,   0.024288, -34.559808,  -0.694934,   0.629056,  -0.898125, -612.000000, -265.500000, -481.500000, -68.645264, -89.740656, 161.870864,   0.485030,   0.302809,  -0.638320,   0.515305, 
18432,   9.262141,  -3.457857,   0.052329,   1.913173,  -0.029628, -35.050920,  -0.692908,   0.622628,  -0.885414, -610.500000, -267.000000, -477.000000, -69.003384, -89.713528, 161.863888,   0.486591,   0.304887,  -0.637278,   0.513906, 
18433,   9.278819,  -3.486420,  -0.019237,   2.050655,   0.033164, -35.857664,  -0.683513,   0.630047,  -0.894883, -606.000000, -265.500000, -480.000000, -69.362232, -89.695984, 161.866976,   0.488122,   0.306977,  -0.636233,   0.512479, 
18434,   9.229046,  -3.377335,   0.040924,   1.933565,   0.061237, -36.415444,  -0.696010,   0.615749,  -0.899857, -612.000000, -270.000000, -481.500000, -69.725952, -89.667240, 161.859104,   0.489691,   0.309083,  -0.635155,   0.511047, 
18435,   9.286523,  -3.322595,  -0.003331,   2.021034,  -0.018465, -36.694388,  -0.701431,   0.622088,  -0.888979, -615.000000, -267.000000, -478.500000, -70.093608, -89.646520, 161.859136,   0.491264,   0.311220,  -0.634082,   0.509586, 
18436,   9.349574,  -3.250177,   0.038368,   2.081504,   0.091533, -37.388004,  -0.710312,   0.617113,  -0.893122, -619.500000, -268.500000, -480.000000, -70.472056, -89.615384, 161.849136,   0.492892,   0.313402,  -0.632952,   0.508085, 
18437,   9.270739,  -3.286805,  -0.006572,   2.168417,   0.030971, -37.790392,  -0.710516,   0.610685,  -0.907890, -619.500000, -271.500000, -484.500000, -70.843160, -89.596000, 161.851360,   0.494452,   0.315554,  -0.631845,   0.506590, 
18438,   9.342465,  -3.146672,   0.004746,   2.022592,   0.124640, -37.901536,  -0.708335,   0.602266,  -0.909369, -618.000000, -274.500000, -484.500000, -71.220744, -89.573560, 161.849840,   0.496048,   0.317734,  -0.630719,   0.505068, 
18439,   9.413553,  -3.053638,   0.029536,   2.100138,   0.059491, -38.432720,  -0.712105,   0.594935,  -0.896010, -619.500000, -276.000000, -480.000000, -71.610616, -89.538248, 161.836304,   0.497715,   0.319974,  -0.629537,   0.503510, 
18440,   9.437508,  -3.054922,   0.032074,   2.102584,   0.171112, -39.222676,  -0.717730,   0.594846,  -0.899899, -622.500000, -276.000000, -481.500000, -72.002008, -89.504992, 161.824672,   0.499368,   0.322215,  -0.628337,   0.501927, 
18441,   9.578924,  -2.955008,   0.017262,   2.018971,   0.182674, -40.485324,  -0.725147,   0.572581,  -0.906676, -625.500000, -283.500000, -483.000000, -72.408216, -89.473288, 161.813824,   0.501079,   0.324533,  -0.627095,   0.500266, 
18442,   9.619479,  -2.826461,   0.077259,   2.083263,   0.197137, -42.860260,  -0.729259,   0.563621,  -0.884242, -627.000000, -285.000000, -475.500000, -72.845720, -89.421056, 161.782864,   0.502953,   0.327005,  -0.625734,   0.498492, 
18443,   9.602931,  -2.846342,   0.000400,   2.447049,   0.186671, -44.753680,  -0.729071,   0.567242,  -0.879127, -627.000000, -283.500000, -474.000000, -73.291368, -89.375784, 161.761008,   0.504830,   0.329537,  -0.624347,   0.496672, 
18444,   9.487797,  -2.727723,   0.019098,   2.346814,   0.233237, -46.137724,  -0.738157,   0.555839,  -0.898038, -631.500000, -288.000000, -480.000000, -73.749704, -89.336984, 161.745760,   0.506733,   0.332138,  -0.622917,   0.494773, 
18445,   9.403788,  -2.726251,   0.045621,   2.485254,   0.321359, -46.239072,  -0.732532,   0.555928,  -0.894148, -628.500000, -288.000000, -478.500000, -74.207792, -89.279440, 161.712512,   0.508657,   0.334726,  -0.621461,   0.492896, 
18446,   9.344575,  -2.651412,  -0.029719,   2.062576,   0.300709, -45.243252,  -0.730864,   0.545065,  -0.882015, -627.000000, -291.000000, -474.000000, -74.649952, -89.271000, 161.725696,   0.510447,   0.337257,  -0.620119,   0.491021, 
18447,   9.382360,  -2.491506,   0.015523,   2.018506,   0.386807, -44.076024,  -0.742831,   0.536017,  -0.890949, -633.000000, -294.000000, -477.000000, -75.093512, -89.230848, 161.705376,   0.512274,   0.339744,  -0.618716,   0.489145, 
18448,   9.492642,  -2.504329,  -0.002548,   1.930831,   0.337564, -43.303300,  -0.742660,   0.536831,  -0.895486, -633.000000, -294.000000, -478.500000, -75.521824, -89.190088, 161.684176,   0.514037,   0.342148,  -0.617359,   0.487336, 
18449,   9.629426,  -2.363053,  -0.005564,   1.666255,   0.498162, -43.329464,  -0.742676,   0.534024,  -0.905139, -633.000000, -295.500000, -481.500000, -75.955184, -89.163024, 161.674192,   0.515811,   0.344579,  -0.616012,   0.485478, 
18450,   9.709117,  -2.208643,   0.043528,   1.411650,   0.608634, -44.461692,  -0.743548,   0.527146,  -0.892104, -633.000000, -297.000000, -477.000000, -76.407656, -89.101088, 161.627008,   0.517691,   0.347057,  -0.614547,   0.483528, 
18451,   9.712903,  -2.182633,   0.030590,   1.714317,   0.573917, -45.903664,  -0.751478,   0.502436,  -0.885268, -636.000000, -304.500000, -474.000000, -76.872448, -89.028288, 161.569888,   0.519626,   0.349601,  -0.613035,   0.481532, 
18452,   9.768504,  -2.142565,  -0.028574,   1.407961,   0.602711, -47.377320,  -0.754939,   0.491122,  -0.900289, -637.500000, -309.000000, -478.500000, -77.344792, -88.984904, 161.540832,   0.521560,   0.352207,  -0.611543,   0.479470, 
18453,   9.751850,  -2.048691,   0.053398,   1.394745,   0.737205, -48.924200,  -0.755656,   0.482251,  -0.901444, -637.500000, -312.000000, -478.500000, -77.833960, -88.901712, 161.471248,   0.523579,   0.354854,  -0.609932,   0.477329, 
18454,   9.780037,  -1.957738,   0.019441,   1.337337,   0.738175, -50.508756,  -0.755297,   0.486686,  -0.900867, -637.500000, -310.500000, -478.500000, -78.337472, -88.823208, 161.405984,   0.525646,   0.357584,  -0.608291,   0.475113, 
18455,   9.767960,  -1.883179,  -0.008335,   1.365304,   0.786312, -51.525836,  -0.758554,   0.481799,  -0.901120, -639.000000, -312.000000, -478.500000, -78.853552, -88.754408, 161.349536,   0.527746,   0.360386,  -0.606624,   0.472818, 
18456,   9.680437,  -1.836844,   0.051830,   1.280506,   0.755698, -52.336684,  -0.762886,   0.463606,  -0.903106, -640.500000, -318.000000, -478.500000, -79.371696, -88.648704, 161.256432,   0.529860,   0.363164,  -0.604895,   0.470514, 
18457,   9.657706,  -1.748034,   0.010409,   1.349424,   0.791527, -52.256964,  -0.763790,   0.451114,  -0.909376, -640.500000, -322.500000, -480.000000, -79.888920, -88.542824, 161.162224,   0.531964,   0.365938,  -0.603179,   0.468203, 
18458,   9.669916,  -1.702585,   0.012302,   1.177126,   0.811964, -51.814644,  -0.767063,   0.443420,  -0.919282, -642.000000, -325.500000, -483.000000, -80.397392, -88.440880, 161.071488,   0.534006,   0.368659,  -0.601484,   0.465907, 
18459,   9.777628,  -1.604955,   0.027925,   0.980832,   0.900351, -52.015408,  -0.769586,   0.450211,  -0.908728, -643.500000, -322.500000, -480.000000, -80.906168, -88.313672, 160.953872,   0.536052,   0.371356,  -0.599766,   0.463598, 
18460,   9.886735,  -1.467741,   0.044767,   0.786349,   1.001481, -53.208056,  -0.772672,   0.446138,  -0.913519, -645.000000, -324.000000, -481.500000, -81.430520, -88.159328, 160.806896,   0.538179,   0.374119,  -0.597998,   0.461211, 
18461,   9.948576,  -1.333840,   0.040007,   0.746460,   1.001350, -55.001308,  -0.779747,   0.425501,  -0.929371, -648.000000, -331.500000, -486.000000, -81.978656, -87.983504, 160.637072,   0.540383,   0.376988,  -0.596135,   0.458686, 
18462,   9.901544,  -1.248611,   0.069813,   0.732856,   1.045376, -56.845696,  -0.790030,   0.408396,  -0.916519, -652.500000, -336.000000, -481.500000, -82.544776, -87.735264, 160.395264,   0.542682,   0.379931,  -0.594180,   0.456093, 
18463,   9.866526,  -1.204101,   0.044205,   0.769537,   1.083934, -57.993396,  -0.790013,   0.411203,  -0.906866, -652.500000, -334.500000, -478.500000, -83.116792, -87.468064, 160.134784,   0.544976,   0.382908,  -0.592204,   0.453453, 
18464,   9.956425,  -1.107507,   0.020154,   0.668203,   1.088056, -58.977872,  -0.790355,   0.409574,  -0.897792, -652.500000, -334.500000, -475.500000, -83.698624, -87.179096, 159.851936,   0.547271,   0.385929,  -0.590188,   0.450731, 
18465,   9.980159,  -1.015466,   0.046361,   0.508203,   1.133695, -60.571464,  -0.800842,   0.386042,  -0.899707, -657.000000, -342.000000, -475.500000, -84.291240, -86.817864, 159.495216,   0.549609,   0.388987,  -0.588124,   0.447943, 
18466,  10.106849,  -0.855830,   0.043283,   0.161961,   1.263183, -63.253484,  -0.797789,   0.384502,  -0.914221, -655.500000, -343.500000, -480.000000, -84.911928, -86.330608, 159.009680,   0.552061,   0.392159,  -0.585945,   0.444999, 
18467,  10.060664,  -0.721557,   0.073719,   0.167421,   1.356339, -65.923584,  -0.801046,   0.379615,  -0.914475, -657.000000, -345.000000, -480.000000, -85.563768, -85.625584, 158.304704,   0.554653,   0.395463,  -0.583629,   0.441898, 
18468,   9.985950,  -0.490856,   0.179549,   0.164236,   1.377150, -67.858200,  -0.803539,   0.351373,  -0.908865, -657.000000, -354.000000, -477.000000, -86.242344, -84.538824, 157.218496,   0.557361,   0.398875,  -0.581156,   0.438668, 
18469,   9.978977,  -0.548032,   0.046671,   0.902379,   1.293255, -69.249824,  -0.807154,   0.342050,  -0.909696, -658.500000, -357.000000, -477.000000, -86.927128, -83.020392, 155.707040,   0.560042,   0.402361,  -0.578635,   0.435407, 
18470,   9.930126,  -0.466247,   0.061641,   0.855407,   1.346326, -70.496832,  -0.818917,   0.339430,  -0.903862, -664.500000, -357.000000, -475.500000, -87.607304, -80.831344, 153.526224,   0.562637,   0.405845,  -0.576123,   0.432110, 
18471,   9.944784,  -0.298571,   0.074914,   0.846501,   1.344502, -71.442672,  -0.813667,   0.332276,  -0.910203, -661.500000, -360.000000, -477.000000, -88.293264, -76.809480, 149.511648,   0.565272,   0.409376,  -0.573555,   0.428740, 
18472,   9.949061,  -0.218361,   0.044115,   0.935918,   1.382144, -72.746464,  -0.819821,   0.326938,  -0.910132, -664.500000, -361.500000, -477.000000, -88.971888, -67.212128, 139.921552,   0.567940,   0.412957,  -0.570916,   0.425291, 
18473,   9.797449,  -0.162654,   0.077449,   0.876084,   1.433489, -73.172656,  -0.832488,   0.311825,  -0.910568, -670.500000, -366.000000, -477.000000, -89.527288, -30.213678, 102.930232,   0.570579,   0.416496,  -0.568259,   0.421848, 
18474,   9.761454,   0.000845,   0.081161,   0.790772,   1.423584, -72.437888,  -0.828502,   0.287744,  -0.923757, -667.500000, -375.000000, -480.000000, -89.363576,  48.661048,  24.062548,   0.573228,   0.420042,  -0.565554,   0.418369, 
18475,   9.807743,   0.084326,   0.071202,   0.864480,   1.341983, -71.929888,  -0.824857,   0.262034,  -0.927870, -664.500000, -384.000000, -480.000000, -88.739792,  69.949360,   2.781008,   0.575831,   0.423530,  -0.562875,   0.414928, 
18476,   9.907986,   0.186784,   0.048806,   0.818637,   1.285073, -71.674176,  -0.830995,   0.259502,  -0.918146, -667.500000, -384.000000, -477.000000, -88.070352,  76.753136,  -4.016235,   0.578339,   0.426932,  -0.560201,   0.411504, 
18477,  10.063168,   0.473271,   0.091076,   0.753383,   1.276417, -72.628512,  -0.831883,   0.249817,  -0.914764, -667.500000, -387.000000, -475.500000, -87.364344,  80.072808,  -7.329972,   0.580947,   0.430440,  -0.557433,   0.407969, 
18478,  10.066108,   0.530609,   0.110547,   0.793486,   1.309286, -74.698784,  -0.830452,   0.226913,  -0.936703, -666.000000, -396.000000, -481.500000, -86.642464,  82.020024,  -9.270868,   0.583539,   0.433967,  -0.554576,   0.404344, 
18479,  10.143920,   0.678582,   0.094769,   0.821939,   1.360226, -77.108280,  -0.834629,   0.206728,  -0.952879, -667.500000, -403.500000, -486.000000, -85.896208,  83.304696, -10.549327,   0.586212,   0.437597,  -0.551632,   0.400610, 
18480,  10.050878,   0.813420,   0.029839,   0.940409,   1.418095, -79.669456,  -0.842731,   0.181203,  -0.941506, -670.500000, -411.000000, -481.500000, -85.117824,  84.270976, -11.508843,   0.588942,   0.441369,  -0.548553,   0.396685, 
18481,   9.841756,   0.875434,   0.080257,   0.976153,   1.462831, -81.351792,  -0.847981,   0.188357,  -0.935166, -673.500000, -408.000000, -480.000000, -84.323152,  84.949896, -12.180631,   0.591709,   0.445178,  -0.545367,   0.392676, 
18482,   9.630022,   0.960524,   0.085032,   0.943459,   1.482021, -81.091688,  -0.845458,   0.181567,  -0.945719, -672.000000, -411.000000, -483.000000, -83.531648,  85.470968, -12.694395,   0.594434,   0.448956,  -0.542178,   0.388667, 
18483,   9.598855,   1.073196,   0.082122,   0.869664,   1.482855, -79.211696,  -0.839632,   0.147437,  -0.951311, -667.500000, -423.000000, -483.000000, -82.755736,  85.884504, -13.100653,   0.597066,   0.452643,  -0.539034,   0.384715, 
18484,   9.643244,   1.256714,   0.091628,   0.868837,   1.476011, -77.642392,  -0.843434,   0.134493,  -0.957258, -669.000000, -427.500000, -484.500000, -81.992864,  86.207776, -13.417059,   0.599618,   0.456232,  -0.535906,   0.380806, 
18485,   9.684284,   1.387188,   0.103629,   0.857848,   1.502002, -77.201104,  -0.847595,   0.117115,  -0.963781, -670.500000, -433.500000, -486.000000, -81.234648,  86.461224, -13.664026,   0.602151,   0.459779,  -0.532778,   0.376920, 
18486,   9.579407,   1.485456,   0.098127,   0.896394,   1.403636, -76.312792,  -0.849746,   0.090502,  -0.967246, -670.500000, -442.500000, -486.000000, -80.484312,  86.672984, -13.868820,   0.604632,   0.463273,  -0.529661,   0.373063, 
18487,   9.389954,   1.587563,   0.083867,   0.783203,   1.410504, -74.235840,  -0.850292,   0.082445,  -0.972939, -670.500000, -445.500000, -487.500000, -79.747736,  86.851072, -14.040376,   0.607045,   0.466683,  -0.526581,   0.369261, 
18488,   9.292160,   1.668367,   0.097160,   0.840591,   1.287935, -71.101424,  -0.841582,   0.086606,  -0.964258, -666.000000, -444.000000, -484.500000, -79.041072,  87.008392, -14.191297,   0.609324,   0.469940,  -0.523610,   0.365592, 
18489,   9.185251,   1.765056,   0.097806,   0.683069,   1.243866, -66.816300,  -0.850617,   0.083623,  -0.954211, -670.500000, -444.000000, -481.500000, -78.372072,  87.137520, -14.314362,   0.611460,   0.473002,  -0.520775,   0.362106, 
18490,   9.265744,   1.941563,   0.126526,   0.673571,   1.234803, -62.965992,  -0.857489,   0.069413,  -0.955296, -673.500000, -448.500000, -481.500000, -77.737576,  87.242256, -14.413271,   0.613469,   0.475887,  -0.518063,   0.358792, 
18491,   9.415263,   2.070862,   0.074942,   0.619710,   1.161328, -60.334764,  -0.847877,   0.045421,  -0.964594, -667.500000, -457.500000, -483.000000, -77.134592,  87.336504, -14.501925,   0.615359,   0.478620,  -0.515477,   0.355631, 
18492,   9.566495,   2.281311,   0.092803,   0.636194,   1.150063, -59.432580,  -0.845680,   0.039808,  -0.956421, -666.000000, -459.000000, -480.000000, -76.541096,  87.424888, -14.585050,   0.617190,   0.481292,  -0.512916,   0.352501, 
18493,   9.575447,   2.379177,   0.125920,   0.635912,   1.191787, -59.585596,  -0.854357,   0.041260,  -0.945796, -670.500000, -457.500000, -477.000000, -75.949248,  87.494512, -14.649563,   0.619032,   0.483946,  -0.510350,   0.349390, 
18494,   9.511902,   2.442781,   0.098801,   0.605916,   1.141201, -59.634204,  -0.852706,   0.027590,  -0.943315, -669.000000, -462.000000, -475.500000, -75.359976,  87.565032, -14.714663,   0.620818,   0.486567,  -0.507771,   0.346267, 
18495,   9.521268,   2.549029,   0.107927,   0.686961,   1.110631, -59.777932,  -0.860465,   0.003695,  -0.941017, -672.000000, -469.500000, -474.000000, -74.767160,  87.622720, -14.767665,   0.622628,   0.489192,  -0.505170,   0.343128, 
18496,   9.516291,   2.644157,   0.125069,   0.593604,   1.162449, -60.126148,  -0.865765,   0.002429,  -0.963634, -675.000000, -471.000000, -481.500000, -74.174328,  87.676472, -14.816733,   0.624413,   0.491798,  -0.502550,   0.339977, 
18497,   9.543398,   2.797667,   0.137769,   0.655320,   1.148192, -61.152688,  -0.863258,  -0.007167,  -0.983840, -673.500000, -475.500000, -487.500000, -73.572496,  87.725920, -14.861197,   0.626212,   0.494431,  -0.499874,   0.336773, 
18498,   9.545275,   2.911749,   0.117205,   0.615186,   1.231315, -62.317848,  -0.864334,  -0.020473,  -0.985573, -673.500000, -480.000000, -487.500000, -72.960880,  87.779544, -14.909223,   0.628017,   0.497108,  -0.497154,   0.333505, 
18499,   9.430542,   2.983699,   0.126432,   0.719897,   1.235107, -63.273944,  -0.862340,  -0.032514,  -0.992167, -672.000000, -484.500000, -489.000000, -72.336960,  87.829888, -14.954021,   0.629830,   0.499814,  -0.494355,   0.330155, 
18500,   9.300144,   3.031504,   0.126083,   0.745957,   1.215796, -63.561204,  -0.866656,  -0.047901,  -0.984501, -673.500000, -489.000000, -486.000000, -71.709656,  87.871088, -14.989572,   0.631661,   0.502526,  -0.491530,   0.326796, 
18501,   9.246778,   3.134559,   0.117493,   0.745527,   1.226287, -63.247712,  -0.868261,  -0.066457,  -0.982273, -673.500000, -495.000000, -484.500000, -71.081296,  87.916192, -15.028493,   0.633443,   0.505220,  -0.488676,   0.323403, 
18502,   9.270884,   3.266262,   0.105369,   0.701435,   1.174954, -62.866180,  -0.861188,  -0.086466,  -0.990670, -669.000000, -502.500000, -486.000000, -70.456560,  87.960640, -15.067097,   0.635211,   0.507900,  -0.485844,   0.320026, 
18503,   9.168900,   3.360638,   0.103493,   0.719123,   1.246661, -62.751572,  -0.864428,  -0.088546,  -0.981271, -670.500000, -502.500000, -483.000000, -69.832040,  88.002096, -15.102821,   0.636947,   0.510552,  -0.482987,   0.316633, 
18504,   9.114524,   3.418710,   0.135586,   0.700986,   1.240505, -62.220996,  -0.865333,  -0.101038,  -0.987541, -670.500000, -507.000000, -484.500000, -69.213856,  88.036352, -15.131320,   0.638664,   0.513163,  -0.480144,   0.313277, 
18505,   9.020205,   3.487058,   0.131389,   0.681464,   1.201954, -61.064412,  -0.853586,  -0.101224,  -1.003027, -664.500000, -508.500000, -489.000000, -68.602200,  88.069088, -15.158352,   0.640340,   0.515731,  -0.477317,   0.309945, 
18506,   9.115079,   3.637364,   0.129837,   0.568239,   1.207121, -60.099536,  -0.859569,  -0.105749,  -1.007494, -667.500000, -510.000000, -490.500000, -68.001296,  88.099400, -15.183697,   0.641969,   0.518234,  -0.474526,   0.306659, 
18507,   9.217340,   3.829000,   0.131911,   0.620763,   1.185581, -60.812992,  -0.857731,  -0.115797,  -0.999898, -666.000000, -513.000000, -487.500000, -67.401600,  88.128976, -15.208449,   0.643586,   0.520726,  -0.471739,   0.303374, 
18508,   9.248503,   3.952952,   0.141670,   0.684174,   1.257761, -62.334024,  -0.856250,  -0.130281,  -0.992880, -664.500000, -517.500000, -484.500000, -66.789728,  88.158360, -15.232121,   0.645198,   0.523246,  -0.468866,   0.300008, 
18509,   9.124022,   3.973577,   0.126592,   0.661879,   1.283792, -64.222344,  -0.851513,  -0.139878,  -0.985608, -661.500000, -520.500000, -481.500000, -66.165192,  88.187496, -15.255696,   0.646843,   0.525817,  -0.465936,   0.296572, 
18510,   8.989550,   4.036190,   0.116190,   0.775289,   1.268887, -65.352744,  -0.849520,  -0.151918,  -0.992201, -660.000000, -525.000000, -483.000000, -65.523444,  88.214944, -15.277360,   0.648496,   0.528425,  -0.462895,   0.293024, 
18511,   8.873611,   4.087506,   0.102377,   0.655221,   1.222860, -65.711700,  -0.851670,  -0.178531,  -0.995667, -660.000000, -534.000000, -483.000000, -64.875044,  88.248432, -15.304498,   0.650145,   0.531070,  -0.459831,   0.289428, 
18512,   8.839436,   4.229405,   0.136449,   0.672647,   1.267878, -65.597572,  -0.851842,  -0.179346,  -0.991129, -660.000000, -534.000000, -481.500000, -64.225264,  88.270760, -15.322045,   0.651790,   0.533671,  -0.456724,   0.285818, 
18513,   8.891251,   4.389949,   0.126321,   0.639537,   1.282470, -66.241700,  -0.850019,  -0.192201,  -0.993186, -658.500000, -538.500000, -481.500000, -63.570800,  88.295496, -15.341248,   0.653425,   0.536289,  -0.453589,   0.282175, 
18514,   8.821363,   4.442217,   0.135279,   0.726612,   1.269395, -67.024240,  -0.845845,  -0.212661,  -1.001259, -655.500000, -546.000000, -483.000000, -62.914228,  88.319856, -15.359604,   0.655038,   0.538896,  -0.450426,   0.278510, 
18515,   8.780018,   4.574721,   0.153356,   0.693792,   1.301425, -67.737672,  -0.851999,  -0.217999,  -1.001188, -658.500000, -547.500000, -483.000000, -62.248100,  88.340608, -15.375096,   0.656662,   0.541516,  -0.447199,   0.274783, 
18516,   8.787718,   4.681630,   0.163519,   0.747468,   1.294665, -69.042648,  -0.855769,  -0.225330,  -0.987829, -660.000000, -549.000000, -478.500000, -61.574300,  88.361272, -15.390409,   0.658282,   0.544150,  -0.443922,   0.271004, 
18517,   8.864143,   4.837963,   0.139408,   0.845525,   1.347514, -70.850832,  -0.853775,  -0.237370,  -0.994423, -658.500000, -553.500000, -480.000000, -60.889108,  88.385464, -15.408129,   0.659891,   0.546818,  -0.440577,   0.267149, 
18518,   8.756945,   4.944228,   0.110944,   0.824845,   1.405233, -73.504432,  -0.851798,  -0.252218,  -1.010670, -657.000000, -559.500000, -484.500000, -60.178740,  88.416200, -15.431254,   0.661520,   0.549583,  -0.437108,   0.263135, 
18519,   8.609589,   4.977285,   0.133474,   0.837469,   1.411091, -75.845280,  -0.855926,  -0.263983,  -0.997888, -658.500000, -562.500000, -480.000000, -59.445776,  88.439576, -15.447368,   0.663189,   0.552394,  -0.433492,   0.258992, 
18520,   8.355742,   5.029719,   0.136930,   0.917163,   1.476817, -76.878880,  -0.854087,  -0.274032,  -0.990292, -657.000000, -565.500000, -477.000000, -58.690724,  88.458744, -15.460005,   0.664895,   0.555255,  -0.429745,   0.254717, 
18521,   8.254493,   5.161296,   0.148068,   0.873040,   1.508076, -75.999816,  -0.855709,  -0.295395,  -0.997717, -657.000000, -573.000000, -478.500000, -57.925704,  88.477264, -15.471346,   0.666594,   0.558133,  -0.425927,   0.250377, 
18522,   8.321207,   5.315258,   0.149260,   0.802778,   1.421393, -75.584392,  -0.855008,  -0.289330,  -1.006215, -657.000000, -571.500000, -481.500000, -57.176128,  88.496624, -15.483741,   0.668220,   0.560927,  -0.422169,   0.246108, 
18523,   8.242716,   5.409888,   0.135428,   0.866091,   1.476332, -76.025608,  -0.856801,  -0.311508,  -1.009102, -657.000000, -579.000000, -481.500000, -56.428300,  88.520072, -15.499365,   0.669807,   0.563712,  -0.418417,   0.241836, 
18524,   8.192770,   5.514325,   0.153160,   0.848382,   1.486399, -76.775032,  -0.845413,  -0.316129,  -1.025166, -651.000000, -582.000000, -486.000000, -55.674736,  88.539104, -15.511198,   0.671378,   0.566473,  -0.414604,   0.237520, 
18525,   7.996882,   5.578421,   0.149448,   0.905509,   1.407196, -77.163576,  -0.840659,  -0.322920,  -1.008241, -648.000000, -583.500000, -480.000000, -54.911380,  88.558744, -15.523185,   0.672952,   0.569262,  -0.410734,   0.233144, 
18526,   7.856387,   5.685345,   0.121851,   0.796383,   1.469653, -76.593144,  -0.845692,  -0.347178,  -1.001729, -649.500000, -591.000000, -477.000000, -54.144696,  88.578920, -15.536033,   0.674480,   0.572022,  -0.406822,   0.228726, 
18527,   8.017478,   5.857250,   0.154513,   0.919637,   1.402522, -76.521424,  -0.846613,  -0.362477,  -1.017652, -649.500000, -597.000000, -481.500000, -53.390132,  88.598432, -15.547756,   0.675974,   0.574733,  -0.402965,   0.224378, 
18528,   8.013604,   5.971868,   0.140333,   0.919542,   1.441978, -78.480824,  -0.838636,  -0.369993,  -1.019779, -645.000000, -600.000000, -481.500000, -52.635160,  88.617712, -15.559293,   0.677415,   0.577402,  -0.399076,   0.220008, 
18529,   7.831697,   6.074449,   0.137014,   0.896473,   1.550976, -79.992488,  -0.823040,  -0.389462,  -1.024611, -636.000000, -607.500000, -481.500000, -51.854580,  88.638856, -15.571504,   0.678885,   0.580159,  -0.395049,   0.215487, 
18530,   7.639227,   6.095181,   0.106938,   0.950509,   1.563361, -80.836824,  -0.815935,  -0.403857,  -1.013703, -631.500000, -612.000000, -477.000000, -51.058692,  88.660184, -15.583787,   0.680338,   0.582931,  -0.390919,   0.210862, 
18531,   7.380339,   6.159249,   0.150494,   0.888861,   1.526482, -80.147712,  -0.825345,  -0.414082,  -1.013886, -636.000000, -615.000000, -477.000000, -50.251472,  88.674040, -15.589884,   0.681811,   0.585697,  -0.386698,   0.206172, 
18532,   7.315499,   6.319247,   0.122382,   0.937757,   1.484561, -78.845384,  -0.824833,  -0.411639,  -1.027498, -636.000000, -615.000000, -481.500000, -49.451080,  88.689520, -15.597031,   0.683231,   0.588420,  -0.382499,   0.201511, 
18533,   7.254302,   6.412928,   0.157597,   0.876729,   1.499638, -77.657360,  -0.817915,  -0.429655,  -1.021705, -631.500000, -621.000000, -478.500000, -48.665500,  88.703160, -15.602859,   0.684590,   0.591053,  -0.378354,   0.196924, 
18534,   7.144230,   6.488296,   0.155451,   0.788247,   1.504947, -76.653536,  -0.811901,  -0.460164,  -1.022182, -627.000000, -631.500000, -477.000000, -47.891084,  88.715584, -15.607772,   0.685916,   0.593632,  -0.374257,   0.192398, 
18535,   7.088150,   6.607476,   0.131835,   0.796666,   1.470586, -75.631944,  -0.809191,  -0.463333,  -1.027621, -625.500000, -633.000000, -478.500000, -47.127516,  88.729712, -15.613970,   0.687164,   0.596139,  -0.370195,   0.187919, 
18536,   7.047681,   6.690236,   0.134213,   0.861114,   1.380896, -74.775096,  -0.803223,  -0.461616,  -1.032807, -622.500000, -633.000000, -480.000000, -46.379100,  88.742048, -15.618911,   0.688385,   0.598584,  -0.366207,   0.183527, 
18537,   6.982680,   6.835829,   0.156385,   0.816484,   1.374111, -74.380208,  -0.805888,  -0.490673,  -1.022659, -622.500000, -642.000000, -475.500000, -45.633744,  88.752576, -15.622690,   0.689555,   0.600968,  -0.362205,   0.179140, 
18538,   7.060980,   6.960794,   0.153972,   0.826868,   1.389826, -74.784008,  -0.801526,  -0.507511,  -1.025617, -619.500000, -648.000000, -475.500000, -44.900368,  88.767168, -15.629354,   0.690679,   0.603323,  -0.358274,   0.174815, 
18539,   5.967876,   6.852740,   0.053881,   1.023490,   1.436005, -74.554760,  -0.801526,  -0.507511,  -1.025617, -619.500000, -648.000000, -475.500000, -44.150540,  88.782064, -15.635566,   0.691779,   0.605691,  -0.354228,   0.170384, 
18540,   6.803310,   6.777372,   0.205041,   0.876524,   1.247769, -69.459784,  -0.797911,  -0.498189,  -1.024786, -618.000000, -645.000000, -475.500000, -43.450408,  88.783456, -15.632683,   0.692849,   0.607846,  -0.350418,   0.166258, 
18541,   7.036752,   7.473592,  -0.003826,   0.918769,   1.347247, -71.842160,  -0.787736,  -0.511319,  -1.018739, -612.000000, -649.500000, -472.500000, -42.764792,  88.801776, -15.642232,   0.693784,   0.609984,  -0.346709,   0.162183, 
18542,   7.431821,   7.440227,   0.200144,   0.832666,   1.445271, -77.872504,  -0.787673,  -0.540738,  -1.004379, -610.500000, -658.500000, -466.500000, -42.043780,  88.818704, -15.649705,   0.694763,   0.612218,  -0.342794,   0.157903, 
18543,   7.015387,   7.466616,   0.122435,   0.988644,   1.541760, -84.873016,  -0.775739,  -0.537303,  -1.014750, -604.500000, -658.500000, -469.500000, -41.258644,  88.835936, -15.657173,   0.695787,   0.614606,  -0.338507,   0.153230, 
18544,   6.896249,   7.649949,   0.128426,   1.036952,   1.682627, -90.581048,  -0.764522,  -0.542739,  -1.026276, -598.500000, -661.500000, -472.500000, -40.424016,  88.855368, -15.665186,   0.696841,   0.617128,  -0.333938,   0.148259, 
18545,   6.518549,   7.619875,   0.140869,   0.976937,   1.785242, -94.531024,  -0.772094,  -0.563013,  -1.018863, -601.500000, -667.500000, -469.500000, -39.533788,  88.873104, -15.671053,   0.697939,   0.619775,  -0.329038,   0.142954, 
18546,   6.113018,   7.555256,   0.005671,   1.073154,   1.833697, -95.843240,  -0.773203,  -0.581932,  -1.039900, -601.500000, -675.000000, -475.500000, -38.590004,  88.908440, -15.688029,   0.698965,   0.622600,  -0.323856,   0.137296, 
18547,   6.264849,   8.070400,   0.215876,   1.041540,   1.798630, -96.533680,  -0.762857,  -0.594247,  -1.038391, -595.500000, -679.500000, -474.000000, -37.640884,  88.922416, -15.691195,   0.700060,   0.625318,  -0.318582,   0.131622, 
18548,   6.348250,   8.086130,   0.014278,   1.062804,   1.840183, -99.820488,  -0.752854,  -0.608191,  -1.027807, -589.500000, -684.000000, -469.500000, -36.692068,  88.953640, -15.704551,   0.701022,   0.628071,  -0.313326,   0.125924, 
18549,   6.293925,   8.178086,   0.150592,   1.141275,   1.969785, -104.814752,  -0.747449,  -0.617337,  -1.048338, -586.500000, -688.500000, -475.500000, -35.722632,  88.983600, -15.716183,   0.701949,   0.630824,  -0.307923,   0.120095, 
18550,   6.098860,   8.414526,   0.010282,   1.263515,   2.088568, -110.361832,  -0.743087,  -0.634176,  -1.051296, -583.500000, -694.500000, -475.500000, -34.687292,  89.011584, -15.725349,   0.702909,   0.633708,  -0.302122,   0.113867, 
18551,   5.929376,   8.341302,   0.033756,   1.331872,   2.099657, -115.147504,  -0.739784,  -0.661515,  -1.046334, -580.500000, -703.500000, -472.500000, -33.605720,  89.044608, -15.736270,   0.703835,   0.636693,  -0.296046,   0.107351, 
18552,   5.745165,   8.688243,   0.084554,   1.504374,   2.162120, -120.279216,  -0.728926,  -0.671386,  -1.058437, -574.500000, -708.000000, -475.500000, -32.468606,  89.067744, -15.740750,   0.704789,   0.639712,  -0.289603,   0.100499, 
18553,   5.538285,   8.788931,   0.094294,   1.425665,   2.204390, -124.247896,  -0.716959,  -0.662338,  -1.049503, -568.500000, -705.000000, -472.500000, -31.271030,  89.088576, -15.743151,   0.705729,   0.642804,  -0.282777,   0.093274, 
18554,   5.388248,   8.995151,   0.112791,   1.434081,   2.279260, -128.763288,  -0.714932,  -0.668766,  -1.036792, -567.000000, -706.500000, -468.000000, -30.048700,  89.121624, -15.750908,   0.706548,   0.645949,  -0.275803,   0.085882, 
18555,   4.999660,   9.051455,   0.235048,   1.475331,   2.312894, -132.626360,  -0.708560,  -0.694839,  -1.036692, -562.500000, -715.500000, -466.500000, -28.752930,  89.130520, -15.746358,   0.707468,   0.649076,  -0.268328,   0.078049, 
18556,   4.516250,   9.159305,   0.174863,   1.564311,   2.358107, -134.191088,  -0.702359,  -0.721726,  -1.032053, -558.000000, -724.500000, -463.500000, -27.403194,  89.141544, -15.742621,   0.708321,   0.652254,  -0.260510,   0.069876, 
18557,   4.678715,   9.383832,   0.153210,   1.413855,   2.538276, -135.564608,  -0.687356,  -0.717025,  -1.047286, -550.500000, -724.500000, -468.000000, -26.054342,  89.156728, -15.740405,   0.709052,   0.655361,  -0.252670,   0.061697, 
18558,   4.581304,   9.537314,   0.134884,   1.576614,   2.567655, -140.209648,  -0.673771,  -0.727260,  -1.055176, -543.000000, -729.000000, -469.500000, -24.711736,  89.181544, -15.741236,   0.709628,   0.658418,  -0.244846,   0.053547, 
18559,   4.324589,   9.543821,   0.055073,   1.739202,   2.597564, -144.750288,  -0.664501,  -0.752882,  -1.055400, -537.000000, -738.000000, -468.000000, -23.302894,  89.203168, -15.739622,   0.710149,   0.661506,  -0.236591,   0.044990, 
18560,   4.025292,   9.512496,   0.074657,   1.719661,   2.596767, -148.414464,  -0.653096,  -0.754696,  -1.061811, -531.000000, -739.500000, -469.500000, -21.882238,  89.240416, -15.742763,   0.710478,   0.664604,  -0.228257,   0.036352, 
18561,   3.571907,   9.555135,   0.060684,   1.715076,   2.648607, -150.467472,  -0.630800,  -0.760770,  -1.061020, -519.000000, -742.500000, -468.000000, -20.396702,  89.262144, -15.739697,   0.710801,   0.667641,  -0.219478,   0.027314, 
18562,   3.147982,   9.332184,   0.122290,   1.731639,   2.595457, -150.416032,  -0.614146,  -0.769739,  -1.073772, -510.000000, -747.000000, -471.000000, -18.897446,  89.292360, -15.738724,   0.710958,   0.670640,  -0.210594,   0.018187, 
18563,   2.601765,   8.922207,  -0.029011,   1.780321,   2.539933, -149.067520,  -0.608007,  -0.767207,  -1.083495, -507.000000, -747.000000, -474.000000, -17.375714,  89.320208, -15.735554,   0.711008,   0.673554,  -0.201534,   0.008924, 
18564,   2.170849,   9.369291,   0.093196,   1.695537,   2.526579, -144.734624,  -0.604175,  -0.789296,  -1.082493, -504.000000, -754.500000, -472.500000, -15.838633,  89.330072, -15.726895,   0.711040,   0.676273,  -0.192318,  -0.000434, 
18565,   1.642296,   8.924910,  -0.026718,   1.633970,   2.420182, -139.445808,  -0.593300,  -0.796361,  -1.084944, -498.000000, -757.500000, -472.500000, -14.417300,  89.345376, -15.719553,   0.710918,   0.678713,  -0.183771,  -0.009085, 
18566,   1.247929,   9.024626,  -0.039032,   1.464968,   2.345892, -131.390064,  -0.562123,  -0.797458,  -1.080010, -481.500000, -759.000000, -469.500000, -13.062919,  89.360040, -15.712373,   0.710700,   0.680940,  -0.175600,  -0.017327, 
18567,   1.122889,   9.240105,   0.029821,   1.424809,   2.243695, -123.516144,  -0.543613,  -0.813669,  -1.075513, -471.000000, -765.000000, -466.500000, -11.790075,  89.372680, -15.705160,   0.710410,   0.682938,  -0.167898,  -0.025072, 
18568,   0.833378,   9.078849,  -0.011986,   1.289612,   2.097672, -115.557040,  -0.545201,  -0.829419,  -1.063633, -471.000000, -769.500000, -462.000000, -10.595304,  89.385992, -15.698070,   0.710051,   0.684746,  -0.160648,  -0.032336, 
18569,   0.800938,   9.477717,   0.065944,   1.197447,   1.932918, -107.763136,  -0.537908,  -0.840193,  -1.047610, -466.500000, -772.500000, -456.000000,  -9.480015,  89.398376, -15.691308,   0.709651,   0.686370,  -0.153867,  -0.039115, 
18570,   0.689790,   9.572645,   0.104722,   1.104533,   1.752143, -99.621424,  -0.527221,  -0.850880,  -1.055176, -460.500000, -777.000000, -457.500000,  -8.390239,  89.406192, -15.684422,   0.709227,   0.687871,  -0.147226,  -0.045741, 
18571,   0.390381,   9.261530,  -0.043492,   1.110711,   1.804356, -92.849552,  -0.513277,  -0.856678,  -1.062488, -453.000000, -780.000000, -459.000000,  -7.429563,  89.416648, -15.678016,   0.708762,   0.689149,  -0.141357,  -0.051572, 
18572,   0.283293,   9.299189,  -0.041313,   0.968707,   1.652860, -85.969768,  -0.504428,  -0.857316,  -1.077650, -448.500000, -781.500000, -463.500000,  -6.490225,  89.424752, -15.671322,   0.708280,   0.690346,  -0.135608,  -0.057271, 
18573,   0.375108,   9.634294,   0.052254,   0.870511,   1.480241, -79.725208,  -0.493211,  -0.862752,  -1.089177, -442.500000, -784.500000, -466.500000,  -5.567838,  89.429056, -15.664751,   0.707796,   0.691464,  -0.129955,  -0.062870, 
18574,   0.234923,   9.643137,   0.051215,   0.894541,   1.456994, -73.789936,  -0.483784,  -0.849720,  -1.079341, -438.000000, -780.000000, -463.500000,  -4.707661,  89.440064, -15.659915,   0.707240,   0.692488,  -0.124683,  -0.068087, 
18575,   0.042908,   9.552418,  -0.001031,   0.763831,   1.342961, -68.284448,  -0.487366,  -0.853429,  -1.060867, -439.500000, -780.000000, -457.500000,  -3.907792,  89.454680, -15.654735,   0.706674,   0.693445,  -0.119778,  -0.072927, 
18576,  -0.032082,   9.525563,  -0.014592,   0.668144,   1.226770, -63.187628,  -0.480277,  -0.870632,  -1.059612, -435.000000, -786.000000, -456.000000,  -3.174613,  89.466648, -15.650479,   0.706130,   0.694279,  -0.115278,  -0.077366, 
18577,   0.096910,   9.837531,   0.046778,   0.711803,   1.195910, -58.740500,  -0.465803,  -0.871180,  -1.070884, -427.500000, -787.500000, -459.000000,  -2.500250,  89.471936, -15.645606,   0.705642,   0.694988,  -0.111126,  -0.081447, 
18578,  -0.053640,   9.889385,   0.137167,   0.584567,   1.153661, -54.861136,  -0.464540,  -0.854253,  -1.064037, -427.500000, -781.500000, -457.500000,  -1.870035,  89.477576, -15.641104,   0.705155,   0.695629,  -0.107243,  -0.085258, 
18579,  -0.194718,   9.551145,  -0.069492,   0.569038,   1.046761, -51.399436,  -0.462001,  -0.858237,  -1.064938, -426.000000, -783.000000, -457.500000,  -1.280855,  89.492576, -15.636696,   0.704633,   0.696279,  -0.103618,  -0.088810, 
18580,  -0.074395,   9.969873,   0.151559,   0.425800,   1.023457, -48.660968,  -0.447544,  -0.861593,  -1.085863, -418.500000, -786.000000, -463.500000,  -0.744143,  89.495176, -15.632249,   0.704192,   0.696772,  -0.100300,  -0.092050, 
18581,  -0.132510,   9.808180,   0.124130,   0.543591,   0.971486, -46.971248,  -0.441935,  -0.864310,  -1.091626, -415.500000, -787.500000, -465.000000,  -0.235242,  89.498792, -15.628528,   0.703768,   0.697245,  -0.097159,  -0.095123, 
18582,  -0.235155,   9.742356,  -0.022384,   0.480340,   0.961959, -45.180280,  -0.437369,  -0.874722,  -1.079817, -412.500000, -790.500000, -460.500000,   0.247359,  89.506296, -15.624521,   0.703322,   0.697701,  -0.094178,  -0.098030, 
18583,  -0.126457,   9.995941,   0.195123,   0.452725,   0.904591, -44.423480,  -0.418376,  -0.853457,  -1.083988, -403.500000, -784.500000, -462.000000,   0.705703,  89.500984, -15.621119,   0.702957,   0.698040,  -0.091336,  -0.100801, 
18584,  -0.050672,   9.652353,  -0.044677,   0.479504,   0.923799, -44.910204,  -0.409495,  -0.848481,  -1.079845, -399.000000, -783.000000, -460.500000,   1.129868,  89.514408, -15.617374,   0.702509,   0.698467,  -0.088719,  -0.103347, 
18585,   0.008744,  10.155003,   0.163780,   0.535026,   0.934769, -47.198280,  -0.427925,  -0.858884,  -1.060329, -408.000000, -784.500000, -454.500000,   1.553358,  89.512912, -15.614129,   0.702141,   0.698790,  -0.086094,  -0.105902, 
18586,  -0.025262,   9.861760,  -0.004476,   0.566757,   1.036596, -50.678264,  -0.431540,  -0.868206,  -1.061160, -409.500000, -787.500000, -454.500000,   1.987308,  89.528944, -15.609670,   0.701636,   0.699208,  -0.083412,  -0.108498, 
18587,  -0.067086,   9.883099,   0.052669,   0.608456,   1.040211, -54.419040,  -0.420152,  -0.872827,  -1.077223, -403.500000, -790.500000, -459.000000,   2.456921,  89.538024, -15.605590,   0.701140,   0.699609,  -0.080507,  -0.111318, 
18588,  -0.171228,  10.167317,   0.113725,   0.655537,   1.038758, -57.987720,  -0.410758,  -0.865409,  -1.086693, -399.000000, -789.000000, -462.000000,   2.970009,  89.550392, -15.600770,   0.700572,   0.700051,  -0.077331,  -0.114393, 
18589,  -0.515781,   9.871173,   0.134890,   0.619579,   1.152565, -60.308816,  -0.401534,  -0.858804,  -1.091625, -394.500000, -787.500000, -463.500000,   3.541531,  89.563608, -15.595811,   0.699913,   0.700508,  -0.073794,  -0.117819, 
18590,  -0.666521,   9.630718,  -0.061348,   0.692981,   1.139589, -61.466696,  -0.390659,  -0.865869,  -1.094076, -388.500000, -790.500000, -463.500000,   4.141448,  89.571752, -15.590414,   0.699256,   0.700953,  -0.070075,  -0.121417, 
18591,  -0.760503,  10.024119,   0.089498,   0.605587,   1.106123, -62.450720,  -0.379409,  -0.865692,  -1.086297, -382.500000, -790.500000, -460.500000,   4.748348,  89.574448, -15.585934,   0.698585,   0.701329,  -0.066309,  -0.125060, 
18592,  -0.911871,  10.053656,   0.142226,   0.627458,   1.178843, -63.106744,  -0.379751,  -0.867321,  -1.077222, -382.500000, -790.500000, -457.500000,   5.374281,  89.583240, -15.580574,   0.697851,   0.701747,  -0.062426,  -0.128809, 
18593,  -1.014578,   9.684171,   0.092684,   0.720742,   1.131668, -64.372352,  -0.389317,  -0.875554,  -1.063215, -387.000000, -792.000000, -453.000000,   6.002493,  89.596496, -15.575057,   0.697060,   0.702165,  -0.058531,  -0.132564, 
18594,  -1.077127,   9.601275,   0.000096,   0.754288,   1.204800, -65.719636,  -0.386264,  -0.877095,  -1.077729, -385.500000, -793.500000, -457.500000,   6.636393,  89.602864, -15.569616,   0.696285,   0.702525,  -0.054593,  -0.136355, 
18595,  -1.207500,   9.588862,  -0.031572,   0.735141,   1.269553, -66.989328,  -0.376886,  -0.872483,  -1.096851, -381.000000, -793.500000, -463.500000,   7.287410,  89.616368, -15.562807,   0.695430,   0.702917,  -0.050549,  -0.140234, 
18596,  -1.208706,   9.633780,   0.038481,   0.705198,   1.273013, -67.877296,  -0.362584,  -0.873846,  -1.103586, -373.500000, -795.000000, -465.000000,   7.952690,  89.622680, -15.556357,   0.694572,   0.703241,  -0.046408,  -0.144199, 
18597,  -1.373758,   9.611835,   0.053367,   0.713578,   1.375827, -68.841400,  -0.349153,  -0.882089,  -1.097286, -366.000000, -798.000000, -462.000000,   8.625919,  89.629248, -15.549336,   0.693690,   0.703556,  -0.042215,  -0.148206, 
18598,  -1.517449,   9.626513,   0.099651,   0.747110,   1.383591, -69.437528,  -0.335176,  -0.882275,  -1.085293, -358.500000, -798.000000, -457.500000,   9.320384,  89.636384, -15.542251,   0.692740,   0.703844,  -0.037889,  -0.152333, 
18599,  -1.606487,   9.576132,   0.057510,   0.715204,   1.389146, -69.720152,  -0.329379,  -0.881371,  -1.085941, -355.500000, -798.000000, -457.500000,  10.013578,  89.645888, -15.534192,   0.691767,   0.704134,  -0.033568,  -0.156444, 
18600,  -1.940536,   9.495871,   0.093785,   0.792922,   1.318257, -69.824992,  -0.319985,  -0.873952,  -1.095411, -351.000000, -796.500000, -460.500000,  10.732816,  89.651288, -15.527310,   0.690743,   0.704364,  -0.029086,  -0.160711, 
18601,  -2.083874,   9.469421,   0.010797,   0.817623,   1.345009, -69.606664,  -0.309110,  -0.881018,  -1.097862, -345.000000, -799.500000, -460.500000,  11.441819,  89.659680, -15.520111,   0.689702,   0.704595,  -0.024670,  -0.164912, 
18602,  -2.333108,   9.397138,   0.091316,   0.760192,   1.308810, -68.587760,  -0.305837,  -0.873324,  -1.087956, -343.500000, -796.500000, -457.500000,  12.169190,  89.663184, -15.513991,   0.688624,   0.704761,  -0.020138,  -0.169221, 
18603,  -2.474548,   9.385867,   0.033795,   0.743334,   1.316584, -66.483628,  -0.305650,  -0.869703,  -1.082841, -343.500000, -795.000000, -456.000000,  12.890746,  89.669592, -15.507364,   0.687521,   0.704924,  -0.015644,  -0.173488, 
18604,  -2.611337,   9.374611,   0.100243,   0.637420,   1.285716, -63.855116,  -0.295321,  -0.884825,  -1.090984, -337.500000, -801.000000, -457.500000,  13.593352,  89.673480, -15.501206,   0.686427,   0.705033,  -0.011265,  -0.177637, 
18605,  -2.579168,   9.341332,   0.059543,   0.750912,   1.144480, -61.839228,  -0.289679,  -0.881929,  -1.077442, -334.500000, -799.500000, -453.000000,  14.253276,  89.677696, -15.495076,   0.685382,   0.705123,  -0.007151,  -0.181528, 
18606,  -2.675368,   9.354909,   0.101327,   0.669119,   1.183353, -60.646164,  -0.288416,  -0.865002,  -1.070595, -334.500000, -793.500000, -451.500000,  14.891747,  89.680544, -15.490026,   0.684345,   0.705169,  -0.003175,  -0.185290, 
18607,  -2.716170,   9.351421,   0.017217,   0.704312,   1.137547, -59.725048,  -0.281311,  -0.879397,  -1.059687, -330.000000, -798.000000, -447.000000,  15.512141,  89.688928, -15.483184,   0.683303,   0.705243,   0.000691,  -0.188933, 
18608,  -2.817385,   9.321532,   0.103786,   0.609422,   1.212428, -59.037228,  -0.275685,  -0.879309,  -1.055797, -327.000000, -798.000000, -445.500000,  16.120712,  89.694328, -15.477260,   0.682256,   0.705255,   0.004483,  -0.192501, 
18609,  -2.874357,   9.265142,   0.046077,   0.564990,   1.198807, -58.237292,  -0.267413,  -0.852970,  -1.071708, -324.000000, -790.500000, -451.500000,  16.723322,  89.699216, -15.471169,   0.681222,   0.705264,   0.008240,  -0.196033, 
18610,  -2.989475,   9.264995,   0.058203,   0.632065,   1.121156, -57.733164,  -0.258548,  -0.850801,  -1.077217, -319.500000, -790.500000, -453.000000,  17.314128,  89.706400, -15.464712,   0.680163,   0.705253,   0.011922,  -0.199484, 
18611,  -3.050806,   9.237445,   0.071891,   0.623109,   1.149813, -57.349820,  -0.248219,  -0.865923,  -1.085361, -313.500000, -796.500000, -454.500000,  17.898752,  89.709808, -15.459300,   0.679126,   0.705209,   0.015565,  -0.202902, 
18612,  -3.182312,   9.204256,   0.092134,   0.613639,   1.106724, -57.080900,  -0.247331,  -0.856238,  -1.088743, -313.500000, -793.500000, -456.000000,  18.482398,  89.714456, -15.453739,   0.678069,   0.705156,   0.019200,  -0.206309, 
18613,  -3.291383,   9.191726,   0.077148,   0.553124,   1.172277, -56.462496,  -0.232483,  -0.849545,  -1.089786, -306.000000, -792.000000, -456.000000,  19.068568,  89.717200, -15.448557,   0.676990,   0.705062,   0.022851,  -0.209724, 
18614,  -3.343175,   9.144067,   0.078500,   0.628843,   1.094429, -55.993084,  -0.219410,  -0.862222,  -1.084063, -298.500000, -796.500000, -453.000000,  19.642428,  89.722968, -15.442858,   0.675917,   0.704988,   0.026423,  -0.213066, 
18615,  -3.427329,   9.106564,   0.092012,   0.637276,   1.122383, -55.740112,  -0.219426,  -0.865029,  -1.093716, -298.500000, -798.000000, -456.000000,  20.210104,  89.725176, -15.437702,   0.674838,   0.704855,   0.029958,  -0.216361, 
18616,  -3.441458,   9.122648,   0.052966,   0.645466,   1.068588, -55.819296,  -0.218897,  -0.859779,  -1.097676, -298.500000, -796.500000, -457.500000,  20.764956,  89.733296, -15.430637,   0.673748,   0.704755,   0.033414,  -0.219572, 
18617,  -3.493450,   9.080214,   0.106255,   0.569361,   1.065130, -56.533840,  -0.218848,  -0.851359,  -1.068718, -298.500000, -792.000000, -448.500000,  21.321686,  89.736816, -15.425591,   0.672663,   0.704611,   0.036877,  -0.222799, 
18618,  -3.533504,   9.071571,   0.073491,   0.683929,   1.193317, -57.513736,  -0.213019,  -0.844843,  -1.050061, -295.500000, -789.000000, -442.500000,  21.877296,  89.744072, -15.418690,   0.671537,   0.704463,   0.040336,  -0.226002, 
18619,  -3.656288,   9.053230,   0.035383,   0.711892,   1.213968, -58.687956,  -0.204341,  -0.846295,  -1.060686, -291.000000, -790.500000, -445.500000,  22.445590,  89.755984, -15.410046,   0.670362,   0.704336,   0.043874,  -0.229272, 
18620,  -3.700008,   8.957054,   0.052107,   0.670566,   1.218266, -59.610844,  -0.194930,  -0.836070,  -1.060503, -286.500000, -787.500000, -445.500000,  23.023568,  89.765520, -15.402208,   0.669143,   0.704153,   0.047468,  -0.232589, 
18621,  -3.851378,   8.899735,   0.063923,   0.741428,   1.193100, -61.029096,  -0.185674,  -0.823852,  -1.046130, -282.000000, -783.000000, -441.000000,  23.617576,  89.774192, -15.394621,   0.667894,   0.703953,   0.051161,  -0.236001, 
18622,  -4.013703,   8.883326,   0.025522,   0.708159,   1.208179, -61.577476,  -0.175562,  -0.807562,  -1.054444, -277.500000, -778.500000, -444.000000,  24.232246,  89.787104, -15.385231,   0.666557,   0.703744,   0.054981,  -0.239517, 
