Standard output of YIS Manager:
  TID,     AccX,     AccY,     AccZ,    AngVX,    AngVY,    AngVZ,     MagX,     MagY,     MagZ, NormMagX, NormMagY, NormMagZ,    Pitch,     Roll,      Yaw,       q0,       q1,       q2,       q3, 
19011,   0.118792,   9.776587,   0.041588,   0.077484,   0.107982,  -0.074161,   0.203166,  -0.948721,  -0.412072, -64.500000, -805.500000, -213.000000,  -0.971698,  89.845088,  28.860422,   0.684178,   0.685315,   0.170144,   0.182234, 
19012,   0.206785,   9.754857,  -0.082032,   0.091510,   0.266930,  -0.104061,   0.200439,  -0.948358,  -0.416286, -66.000000, -805.500000, -214.500000,  -0.975118,  89.855600,  28.844402,   0.684135,   0.685407,   0.170045,   0.182143, 
19013,   0.109327,   9.848023,   0.097632,  -0.058752,   0.233059,  -0.029925,   0.204396,  -0.937407,  -0.424530, -64.500000, -802.500000, -217.500000,  -0.970123,  89.852080,  28.828252,   0.684190,   0.685402,   0.169972,   0.182022, 
19014,   0.199292,   9.795232,  -0.026454,   0.020881,   0.085639,  -0.022964,   0.219244,  -0.930714,  -0.425572, -57.000000, -801.000000, -217.500000,  -0.969864,  89.855280,  28.829782,   0.684169,   0.685418,   0.169988,   0.182025, 
19015,   0.176485,   9.773473,   0.001295,  -0.135845,   0.250981,  -0.039159,   0.210379,  -0.932883,  -0.420063, -61.500000, -801.000000, -216.000000,  -0.974045,  89.862080,  28.824788,   0.684129,   0.685473,   0.169944,   0.182010, 
19016,   0.183918,   9.819732,   0.107218,   0.090537,   0.172155,  -0.082547,   0.212748,  -0.937682,  -0.416427, -60.000000, -802.500000, -214.500000,  -0.973440,  89.852864,  28.827894,   0.684180,   0.685412,   0.169952,   0.182039, 
19017,   0.168185,   9.791823,   0.002426,   0.215447,   0.170080,  -0.045429,   0.221133,  -0.932343,  -0.389019, -55.500000, -799.500000, -205.500000,  -0.975515,  89.854680,  28.859852,   0.684116,   0.685379,   0.170133,   0.182239, 
19018,   0.158008,   9.814678,   0.057185,   0.037574,   0.219722,  -0.082286,   0.222021,  -0.922657,  -0.392401, -55.500000, -796.500000, -207.000000,  -0.974874,  89.858008,  28.889028,   0.684051,   0.685354,   0.170317,   0.182404, 
19019,   0.158645,   9.823724,   0.028934,   0.301187,   0.161124,  -0.018535,   0.218919,  -0.929536,  -0.406845, -57.000000, -799.500000, -211.500000,  -0.974998,  89.857664,  28.904596,   0.684028,   0.685329,   0.170409,   0.182499, 
19020,   0.193539,   9.783769,  -0.064275,   0.105921,   0.196199,  -0.012327,   0.209508,  -0.939762,  -0.407028, -61.500000, -802.500000, -211.500000,  -0.976957,  89.869432,  28.905758,   0.683953,   0.685402,   0.170423,   0.182500, 
19021,   0.134470,   9.814302,   0.064157,   0.120915,   0.152190,  -0.107709,   0.212202,  -0.945738,  -0.422119, -60.000000, -805.500000, -216.000000,  -0.975831,  89.868672,  28.901270,   0.683966,   0.685402,   0.170401,   0.182468, 
19022,   0.184929,   9.828843,   0.008608,   0.143784,   0.148155,  -0.113331,   0.200251,  -0.951979,  -0.421401, -66.000000, -807.000000, -216.000000,  -0.976282,  89.870864,  28.881922,   0.683983,   0.685444,   0.170287,   0.182351, 
19023,   0.178630,   9.813118,  -0.031120,  -0.058827,   0.214957,  -0.091168,   0.209850,  -0.938133,  -0.416103, -61.500000, -802.500000, -214.500000,  -0.977227,  89.880128,  28.876694,   0.683935,   0.685509,   0.170265,   0.182312, 
19024,   0.142419,   9.781137,   0.049702,  -0.100400,   0.172938,  -0.015013,   0.210600,  -0.923649,  -0.395643, -61.500000, -796.500000, -208.500000,  -0.973968,  89.879208,  28.888096,   0.683927,   0.685482,   0.170351,   0.182362, 
19025,   0.195399,   9.837218,  -0.000290,  -0.093248,   0.206093,  -0.100408,   0.205675,  -0.917673,  -0.408030, -64.500000, -795.000000, -213.000000,  -0.975708,  89.881096,  28.884704,   0.683919,   0.685501,   0.170323,   0.182350, 
19026,   0.164539,   9.824671,   0.037306,  -0.161335,   0.172682,  -0.093049,   0.208557,  -0.920028,  -0.418006, -63.000000, -796.500000, -216.000000,  -0.977109,  89.881400,  28.878314,   0.683925,   0.685514,   0.170277,   0.182319, 
19027,   0.155425,   9.792979,   0.043643,  -0.050502,   0.188249,  -0.091551,   0.209353,  -0.937770,  -0.392838, -61.500000, -801.000000, -207.000000,  -0.976184,  89.877920,  28.890876,   0.683927,   0.685473,   0.170352,   0.182394, 
19028,   0.135791,   9.816407,   0.023447,  -0.007820,   0.259325,  -0.089818,   0.214433,  -0.945738,  -0.394641, -58.500000, -804.000000, -207.000000,  -0.974152,  89.878056,  28.908532,   0.683901,   0.685445,   0.170470,   0.182487, 
19029,   0.128979,   9.844944,   0.122563,   0.188693,   0.072368,  -0.030054,   0.214057,  -0.952980,  -0.404871, -58.500000, -807.000000, -210.000000,  -0.973636,  89.863864,  28.921854,   0.683966,   0.685339,   0.170530,   0.182584, 
19030,   0.225697,   9.766229,  -0.023129,  -0.007668,   0.188463,  -0.030155,   0.205738,  -0.947093,  -0.393669, -63.000000, -804.000000, -207.000000,  -0.977346,  89.881584,  28.926808,   0.683846,   0.685444,   0.170566,   0.182610, 
19031,   0.175920,   9.787642,   0.010152,   0.206903,   0.169966,  -0.071634,   0.198649,  -0.929891,  -0.394924, -67.500000, -798.000000, -208.500000,  -0.978412,  89.883088,  28.923496,   0.683841,   0.685459,   0.170542,   0.182594, 
19032,   0.176312,   9.740970,   0.002451,  -0.015759,   0.232786,  -0.064268,   0.202402,  -0.925366,  -0.417936, -66.000000, -798.000000, -216.000000,  -0.977109,  89.888992,  28.906676,   0.683835,   0.685518,   0.170459,   0.182477, 
19033,   0.130415,   9.807890,   0.024581,   0.077717,   0.125597,  -0.108658,   0.206034,  -0.913237,  -0.407452, -64.500000, -793.500000, -213.000000,  -0.976747,  89.888616,  28.903518,   0.683842,   0.685519,   0.170441,   0.182457, 
19034,   0.175083,   9.819637,  -0.034683,  -0.058170,   0.277097,  -0.116166,   0.205692,  -0.914866,  -0.398377, -64.500000, -793.500000, -210.000000,  -0.974859,  89.897760,  28.903882,   0.683790,   0.685571,   0.170470,   0.182434, 
19035,   0.164978,   9.817102,   0.080321,   0.060529,   0.125680,  -0.100142,   0.200985,  -0.940302,  -0.410593, -66.000000, -802.500000, -213.000000,  -0.979306,  89.890264,  28.895890,   0.683841,   0.685545,   0.170383,   0.182424, 
19036,   0.148350,   9.811926,   0.039472,  -0.085171,   0.161815,  -0.057591,   0.203337,  -0.947907,  -0.416610, -64.500000, -805.500000, -214.500000,  -0.976792,  89.889472,  28.882812,   0.683870,   0.685555,   0.170319,   0.182332, 
19037,   0.220448,   9.792253,  -0.025511,  -0.169873,   0.277570,  -0.073873,   0.203883,  -0.939850,  -0.410917, -64.500000, -802.500000, -213.000000,  -0.983640,  89.895456,  28.876126,   0.683835,   0.685611,   0.170247,   0.182324, 
19038,   0.118308,   9.814374,   0.059905,  -0.101645,   0.223861,  -0.108888,   0.201889,  -0.927810,  -0.404323, -66.000000, -798.000000, -211.500000,  -0.978705,  89.892632,  28.870032,   0.683869,   0.685596,   0.170236,   0.182263, 
19039,   0.200001,   9.806458,   0.007394,   0.103186,   0.098939,  -0.091445,   0.209695,  -0.936141,  -0.401913, -61.500000, -801.000000, -210.000000,  -0.980342,  89.890232,  28.873206,   0.683875,   0.685580,   0.170241,   0.182295, 
19040,   0.151729,   9.827996,  -0.028950,  -0.153285,   0.206007,  -0.144586,   0.205380,  -0.951528,  -0.394246, -63.000000, -805.500000, -207.000000,  -0.980034,  89.899928,  28.876498,   0.683813,   0.685632,   0.170278,   0.182298, 
19041,   0.164957,   9.803532,   0.069098,  -0.196367,   0.188222,  -0.162782,   0.212577,  -0.938496,  -0.411889, -60.000000, -802.500000, -213.000000,  -0.978508,  89.896736,  28.881478,   0.683826,   0.685604,   0.170312,   0.182324, 
19042,   0.143356,   9.765871,   0.030551,   0.232577,   0.161012,  -0.071511,   0.218373,  -0.937593,  -0.412537, -57.000000, -802.500000, -213.000000,  -0.975233,  89.891344,  28.888640,   0.683852,   0.685556,   0.170366,   0.182355, 
19043,   0.189995,   9.823677,  -0.013914,   0.181187,   0.179053,  -0.045647,   0.211176,  -0.950625,  -0.394894, -60.000000, -805.500000, -207.000000,  -0.978327,  89.898288,  28.899972,   0.683788,   0.685585,   0.170426,   0.182431, 
19044,   0.103391,   9.830973,   0.064527,  -0.017295,   0.063359,  -0.145622,   0.205535,  -0.953520,  -0.408436, -63.000000, -807.000000, -211.500000,  -0.975727,  89.896160,  28.904590,   0.683797,   0.685562,   0.170466,   0.182446, 
19045,   0.174196,   9.766453,  -0.031776,   0.086876,   0.197146,  -0.028959,   0.212390,  -0.942117,  -0.417004, -60.000000, -804.000000, -214.500000,  -0.973290,  89.899712,  28.900636,   0.683786,   0.685585,   0.170463,   0.182403, 
19046,   0.209096,   9.802340,  -0.021458,  -0.016401,   0.170601,  -0.047974,   0.213106,  -0.933246,  -0.415849, -60.000000, -801.000000, -214.500000,  -0.978678,  89.906888,  28.900478,   0.683735,   0.685637,   0.170441,   0.182423, 
19047,   0.147664,   9.807765,   0.054218,  -0.041579,   0.223859,  -0.082117,   0.201685,  -0.934237,  -0.419091, -66.000000, -801.000000, -216.000000,  -0.976914,  89.904552,  28.892002,   0.683766,   0.685632,   0.170397,   0.182366, 
19048,   0.196363,   9.781692,  -0.012124,   0.094615,   0.108076,  -0.047862,   0.199380,  -0.958858,  -0.408366, -66.000000, -808.500000, -211.500000,  -0.980027,  89.905392,  28.878854,   0.683777,   0.685662,   0.170301,   0.182304, 
19049,   0.153867,   9.844387,   0.049568,   0.164129,   0.187899,  -0.063084,   0.208074,  -0.957504,  -0.409338, -61.500000, -808.500000, -211.500000,  -0.981007,  89.906928,  28.873182,   0.683775,   0.685681,   0.170264,   0.182274, 
19050,   0.161922,   9.791144,   0.063165,   0.284537,   0.205378,  -0.070150,   0.204445,  -0.928987,  -0.395572, -64.500000, -798.000000, -208.500000,  -0.981501,  89.904216,  28.876108,   0.683786,   0.685661,   0.170274,   0.182299, 
19051,   0.167627,   9.805406,   0.008923,   0.421171,   0.134076,  -0.035100,   0.198462,  -0.933512,  -0.400039, -67.500000, -799.500000, -210.000000,  -0.981284,  89.908680,  28.874284,   0.683762,   0.685690,   0.170271,   0.182280, 
19052,   0.332658,   9.874410,   0.039118,   0.566696,   0.080150,  -0.077970,   0.208995,  -0.942206,  -0.393415, -61.500000, -802.500000, -207.000000,  -0.981174,  89.910272,  28.877014,   0.683749,   0.685695,   0.170291,   0.182293, 
19053,   0.164707,   9.818757,   0.144058,   0.798824,   0.115435,  -0.031271,   0.212439,  -0.933697,  -0.388047, -60.000000, -799.500000, -205.500000,  -0.980053,  89.911224,  28.893040,   0.683719,   0.685676,   0.170395,   0.182381, 
19054,   0.253967,   9.890572,   0.099919,   1.744492,   0.219936,  -0.045105,   0.213465,  -0.928810,  -0.415272, -60.000000, -799.500000, -214.500000,  -0.987880,  89.918976,  28.906424,   0.683640,   0.685714,   0.170441,   0.182496, 
19055,   0.187556,   9.976049,   0.038696,   3.032912,   0.261746,   0.013345,   0.210909,  -0.927633,  -0.424023, -61.500000, -799.500000, -217.500000,  -0.985961,  89.931776,  28.904076,   0.683570,   0.685791,   0.170459,   0.182451, 
19056,   0.107240,   9.849089,   0.164896,   4.423657,   0.213875,  -0.024401,   0.201702,  -0.931431,  -0.409438, -66.000000, -799.500000, -213.000000,  -0.988948,  89.946560,  28.900348,   0.683483,   0.685890,   0.170442,   0.182425, 
19057,   0.170794,   9.892722,   0.149137,   5.808030,   0.214985,   0.043086,   0.203899,  -0.937044,  -0.401265, -64.500000, -801.000000, -210.000000,  -0.995258,  89.980456,  28.900152,   0.683272,   0.686103,   0.170458,   0.182411, 
19058,   0.223367,   9.930776,   0.155784,   7.042904,   0.225697,  -0.012742,   0.207327,  -0.931342,  -0.405549, -63.000000, -799.500000, -211.500000,  -0.999202,  90.030160,  28.903074,   0.682963,   0.686401,   0.170530,   0.182378, 
19059,   0.171206,   9.830749,  -0.139951,   8.350782,   0.271397,  -0.152241,   0.203916,  -0.934237,  -0.391612, -64.500000, -799.500000, -207.000000,  -0.999182,  90.108264,  28.904120,   0.682491,   0.686862,   0.170660,   0.182268, 
19060,   0.137130,   9.456490,  -0.418231,   5.960901,   0.173243,  -0.321494,   0.204120,  -0.927810,  -0.376845, -64.500000, -796.500000, -202.500000,  -0.992781,  90.219008,  28.902620,   0.681836,   0.687511,   0.170865,   0.182054, 
19061,   0.208723,   9.648299,  -0.407337,   0.236247,   0.218607,  -0.211628,   0.195051,  -0.936407,  -0.386103, -69.000000, -799.500000, -205.500000,  -0.991090,  90.277912,  28.888608,   0.681506,   0.687878,   0.170884,   0.181873, 
19062,   0.169973,   9.721055,  -0.079051,   0.345214,   0.249325,  -0.147027,   0.194659,  -0.946455,  -0.405985, -69.000000, -804.000000, -211.500000,  -0.989482,  90.277360,  28.876366,   0.681531,   0.687890,   0.170819,   0.181791, 
19063,   0.164195,   9.747703,  -0.096519,   0.448686,   0.108009,  -0.095214,   0.195034,  -0.939213,  -0.395755, -69.000000, -801.000000, -208.500000,  -0.985650,  90.276504,  28.859282,   0.681570,   0.687905,   0.170738,   0.181668, 
19064,   0.189605,   9.813153,  -0.074121,   0.508106,   0.231432,  -0.093333,   0.200643,  -0.941931,  -0.401518, -66.000000, -802.500000, -210.000000,  -0.988355,  90.283896,  28.848906,   0.681537,   0.687969,   0.170672,   0.181611, 
19065,   0.156148,   9.840483,   0.025713,   0.892188,   0.194197,  -0.050116,   0.203899,  -0.937044,  -0.401265, -64.500000, -801.000000, -210.000000,  -0.987384,  90.279800,  28.844188,   0.681571,   0.687950,   0.170642,   0.181584, 
19066,   0.165629,   9.783176,  -0.108549,   1.167788,   0.078800,  -0.071372,   0.203028,  -0.943923,  -0.388230, -64.500000, -802.500000, -205.500000,  -0.985871,  90.292656,  28.841632,   0.681500,   0.688027,   0.170657,   0.181540, 
19067,   0.169081,   9.853073,   0.006933,   1.449557,   0.200578,  -0.098015,   0.204492,  -0.961213,  -0.390864, -63.000000, -808.500000, -205.500000,  -0.987041,  90.305640,  28.845306,   0.681414,   0.688101,   0.170692,   0.181550, 
19068,   0.143389,   9.845151,  -0.020148,   1.786302,   0.104144,  -0.055405,   0.205584,  -0.945101,  -0.379479, -63.000000, -802.500000, -202.500000,  -0.984803,  90.314528,  28.854426,   0.681350,   0.688136,   0.170774,   0.181577, 
19069,   0.185767,   9.789659,  -0.107346,   1.975566,   0.136251,  -0.070155,   0.203745,  -0.935052,  -0.387075, -64.500000, -799.500000, -205.500000,  -0.986567,  90.337472,  28.862388,   0.681196,   0.688263,   0.170848,   0.181601, 
19070,   0.169078,   9.870368,   0.027863,   2.250161,   0.111778,  -0.093674,   0.203370,  -0.942294,  -0.397305, -64.500000, -802.500000, -208.500000,  -0.986913,  90.353528,  28.863626,   0.681097,   0.688357,   0.170878,   0.181586, 
19071,   0.157385,   9.824303,  -0.032517,   2.516713,   0.064140,  -0.011323,   0.200814,  -0.941116,  -0.406056, -66.000000, -802.500000, -211.500000,  -0.987856,  90.371712,  28.855932,   0.680998,   0.688478,   0.170855,   0.181519, 
19072,   0.151238,   9.807998,  -0.077361,   2.860542,   0.190740,  -0.033329,   0.200456,  -0.945552,  -0.406633, -66.000000, -804.000000, -211.500000,  -0.987338,  90.400584,  28.840482,   0.680849,   0.688671,   0.170811,   0.181381, 
19073,   0.145817,   9.863724,  -0.020511,   3.242967,   0.164958,  -0.071155,   0.208637,  -0.946641,  -0.393993, -61.500000, -804.000000, -207.000000,  -0.984867,  90.426656,  28.835796,   0.680703,   0.688829,   0.170839,   0.181299, 
19074,   0.156266,   9.859373,  -0.070207,   3.667254,   0.135373,  -0.060237,   0.202482,  -0.951979,  -0.393922, -64.500000, -805.500000, -207.000000,  -0.983848,  90.459488,  28.836200,   0.680506,   0.689021,   0.170899,   0.181246, 
19075,   0.171308,   9.837903,  -0.032929,   4.166821,   0.186489,  -0.083803,   0.205926,  -0.943472,  -0.388554, -63.000000, -802.500000, -205.500000,  -0.983377,  90.495832,  28.836832,   0.680287,   0.689235,   0.170963,   0.181193, 
19076,   0.163342,   9.893495,  -0.003442,   4.929196,   0.096953,  -0.047018,   0.216037,  -0.927181,  -0.396868, -58.500000, -798.000000, -208.500000,  -0.984702,  90.531616,  28.846540,   0.680054,   0.689434,   0.171070,   0.181205, 
19077,   0.182761,   9.846881,  -0.083198,   5.609195,   0.167709,  -0.014095,   0.212764,  -0.934875,  -0.406774, -60.000000, -801.000000, -211.500000,  -0.987142,  90.580136,  28.852582,   0.679748,   0.689717,   0.171169,   0.181183, 
19078,   0.151935,   9.844003,  -0.057266,   6.234993,   0.156428,  -0.005467,   0.205535,  -0.953520,  -0.408436, -63.000000, -807.000000, -211.500000,  -0.987902,  90.635256,  28.846700,   0.679425,   0.690053,   0.171216,   0.181070, 
19079,   0.165028,   9.849507,  -0.045033,   6.708035,   0.125426,  -0.056893,   0.199755,  -0.951616,  -0.398136, -66.000000, -805.500000, -208.500000,  -0.988728,  90.692904,  28.835872,   0.679093,   0.690412,   0.171237,   0.180925, 
19080,   0.166599,   9.885926,  -0.071882,   7.479632,   0.109284,   0.033514,   0.212080,  -0.938133,  -0.388624, -60.000000, -801.000000, -205.500000,  -0.989928,  90.756728,  28.835222,   0.678707,   0.690793,   0.171326,   0.180833, 
19081,   0.165765,   9.878419,  -0.057598,   8.310907,   0.130088,   0.030471,   0.214824,  -0.935689,  -0.374758, -58.500000, -799.500000, -201.000000,  -0.991660,  90.827016,  28.852034,   0.678255,   0.691187,   0.171529,   0.180837, 
19082,   0.178006,   9.879403,  -0.084195,   9.316771,   0.051646,   0.026620,   0.206114,  -0.939851,  -0.383439, -63.000000, -801.000000, -204.000000,  -0.994529,  90.905976,  28.866498,   0.677752,   0.691637,   0.171724,   0.180822, 
19083,   0.166653,   9.918971,  -0.045302,  10.329658,   0.004712,   0.002133,   0.205909,  -0.946278,  -0.398206, -63.000000, -804.000000, -208.500000,  -0.995605,  90.992008,  28.865366,   0.677233,   0.692150,   0.171846,   0.180693, 
19084,   0.172717,   9.930179,  -0.048200,  11.909336,  -0.025303,   0.062516,   0.202140,  -0.953608,  -0.384847, -64.500000, -805.500000, -204.000000,  -0.998306,  91.086560,  28.861036,   0.676666,   0.692721,   0.171954,   0.180543, 
19085,   0.164382,   9.924340,  -0.067741,  13.360601,  -0.019577,   0.096012,   0.209011,  -0.939399,  -0.383763, -61.500000, -801.000000, -204.000000,  -1.001599,  91.196864,  28.862722,   0.675994,   0.693377,   0.172119,   0.180408, 
19086,   0.160755,   9.947338,  -0.033523,  15.061474,   0.029627,   0.046000,   0.211926,  -0.936141,  -0.374434, -60.000000, -799.500000, -201.000000,  -1.004056,  91.317584,  28.877068,   0.675240,   0.694075,   0.172382,   0.180326, 
19087,   0.174949,  10.025286,  -0.035135,  17.259110,  -0.028332,   0.138803,   0.204012,  -0.958044,  -0.357946, -63.000000, -805.500000, -195.000000,  -1.006822,  91.452960,  28.894366,   0.674389,   0.694851,   0.172684,   0.180242, 
19088,   0.176113,  10.021139,  -0.032178,  19.860656,  -0.069849,   0.149320,   0.204541,  -0.952794,  -0.361906, -63.000000, -804.000000, -196.500000,  -1.013673,  91.609216,  28.909118,   0.673402,   0.695753,   0.172977,   0.180133, 
19089,   0.162252,   9.981066,  -0.061817,  22.444224,  -0.191349,   0.166919,   0.202857,  -0.944738,  -0.383692, -64.500000, -802.500000, -204.000000,  -1.018944,  91.790792,  28.902976,   0.672296,   0.696833,   0.173193,   0.179853, 
19090,   0.178283,   9.948174,  -0.203359,  24.719972,  -0.178712,   0.183511,   0.211193,  -0.947819,  -0.385242, -60.000000, -804.000000, -204.000000,  -1.023654,  92.007376,  28.901682,   0.670970,   0.698109,   0.173497,   0.179546, 
19091,   0.159110,   9.925845,  -0.230665,  26.755566,  -0.138889,   0.189238,   0.216646,  -0.948545,  -0.376815, -57.000000, -804.000000, -201.000000,  -1.026520,  92.247128,  28.909110,   0.669492,   0.699504,   0.173900,   0.179244, 
19092,   0.167015,   9.904046,  -0.282555,  28.627482,  -0.133754,   0.296980,   0.195985,  -0.958947,  -0.384777, -67.500000, -807.000000, -204.000000,  -1.029592,  92.505200,  28.881086,   0.667957,   0.701061,   0.174115,   0.178708, 
19093,   0.184146,   9.969576,  -0.285334,  30.541916,  -0.200772,   0.229850,   0.194755,  -0.970261,  -0.372319, -67.500000, -810.000000, -199.500000,  -1.035778,  92.779800,  28.858624,   0.666308,   0.702710,   0.174371,   0.178199, 
19094,   0.155538,  10.019878,  -0.261906,  33.074788,  -0.233016,   0.283289,   0.199868,  -0.972616,  -0.354817, -64.500000, -810.000000, -193.500000,  -1.042182,  93.067480,  28.854092,   0.664532,   0.704391,   0.174751,   0.177772, 
19095,   0.164548,  10.030463,  -0.254160,  36.353804,  -0.346607,   0.421829,   0.200397,  -0.967366,  -0.358777, -64.500000, -808.500000, -195.000000,  -1.048372,  93.374704,  28.845188,   0.662640,   0.706187,   0.175135,   0.177288, 
19096,   0.258623,  10.099909,  -0.305936,  39.857376,  -0.363858,   0.364387,   0.204792,  -0.978593,  -0.342430, -61.500000, -811.500000, -189.000000,  -1.065393,  93.715160,  28.852814,   0.660500,   0.708166,   0.175610,   0.176916, 
19097,   0.221916,  10.251195,  -0.229975,  43.531660,  -0.469971,   0.402979,   0.194259,  -0.969899,  -0.349054, -67.500000, -808.500000, -192.000000,  -1.081612,  94.075768,  28.840332,   0.658268,   0.710292,   0.175996,   0.176393, 
19098,   0.803291,  10.550682,  -0.163470,  48.048360,  -0.479894,   0.496075,   0.197515,  -0.965011,  -0.348801, -66.000000, -807.000000, -192.000000,  -1.115771,  94.501056,  28.856234,   0.655544,   0.712750,   0.176552,   0.176040, 
19099,   0.737483,  10.594968,  -0.000455,  52.839636,  -0.535623,   0.452134,   0.207910,  -0.968907,  -0.318334, -60.000000, -807.000000, -181.500000,  -1.121035,  95.007176,  28.913296,   0.652290,   0.715554,   0.177652,   0.175615, 
19100,   0.746592,  10.950706,  -0.018440,  57.982616,  -0.590992,   0.638352,   0.204516,  -0.968995,  -0.294745, -61.500000, -805.500000, -174.000000,  -1.126883,  95.562960,  28.996832,   0.648685,   0.718599,   0.178996,   0.175264, 
19101,   1.078201,  10.364944,  -0.344499,  62.369908,  -0.672105,   0.667837,   0.192940,  -0.967995,  -0.283797, -67.500000, -804.000000, -171.000000,  -1.133352,  96.166048,  29.049954,   0.644793,   0.721918,   0.180211,   0.174657, 
19102,   0.711536,  10.411793,  -0.586807,  66.637732,  -0.681911,   0.671164,   0.197832,  -0.979584,  -0.290715, -64.500000, -808.500000, -172.500000,  -1.140207,  96.813256,  29.076682,   0.640659,   0.725522,   0.181327,   0.173830, 
19103,   0.202856,  10.037792,  -0.782656,  69.960584,  -0.715886,   0.741977,   0.206355,  -0.979044,  -0.287149, -60.000000, -808.500000, -171.000000,  -1.151740,  97.465016,  29.089552,   0.636480,   0.729146,   0.182329,   0.172939, 
19104,   0.271168,   9.761560,  -1.106926,  72.768200,  -0.766939,   0.719783,   0.194625,  -0.976051,  -0.262011, -66.000000, -805.500000, -163.500000,  -1.166052,  98.160720,  29.091932,   0.632016,   0.733016,   0.183312,   0.171934, 
19105,   0.142472,  10.071880,  -1.186166,  74.923376,  -0.771292,   0.839180,   0.187787,  -0.984648,  -0.243790, -69.000000, -807.000000, -157.500000,  -1.171709,  98.877368,  29.086758,   0.627415,   0.736967,   0.184319,   0.170792, 
19106,   0.168696,   9.474743,  -1.721066,  75.979752,  -0.774196,   0.746330,   0.189096,  -0.999946,  -0.232234, -67.500000, -811.500000, -153.000000,  -1.182030,  99.619864,  29.066680,   0.622642,   0.741068,   0.185237,   0.169552, 
19107,   0.230512,   9.702895,  -1.882745,  76.254000,  -0.800660,   0.914237,   0.194225,  -0.999495,  -0.205080, -64.500000, -810.000000, -144.000000,  -1.198848, 100.375176,  29.064716,   0.617713,   0.745176,   0.186245,   0.168425, 
19108,   0.168985,   9.217113,  -2.365109,  75.146360,  -0.798438,   0.849857,   0.191889,  -0.989083,  -0.189411, -66.000000, -805.500000, -139.500000,  -1.195080, 101.178112,  29.044024,   0.612522,   0.749525,   0.187308,   0.166983, 
19109,   0.288993,   9.192769,  -2.564887,  73.069160,  -0.713926,   0.784961,   0.192060,  -0.988269,  -0.193948, -66.000000, -805.500000, -141.000000,  -1.205993, 101.970088,  29.015806,   0.607340,   0.753789,   0.188211,   0.165604, 
19110,   0.222515,   9.152419,  -2.683246,  69.230360,  -0.655059,   0.710839,   0.200600,  -0.984923,  -0.180730, -61.500000, -804.000000, -136.500000,  -1.199647, 102.759888,  28.988164,   0.602188,   0.758005,   0.189201,   0.164118, 
19111,   0.306161,   9.063733,  -2.805634,  64.766440,  -0.615654,   0.608211,   0.194632,  -0.986640,  -0.175545, -64.500000, -804.000000, -135.000000,  -1.201468, 103.494760,  28.954432,   0.597352,   0.761899,   0.190013,   0.162735, 
19112,   0.237974,   9.171980,  -2.784364,  60.162828,  -0.595077,   0.627486,   0.185751,  -0.991615,  -0.179687, -69.000000, -805.500000, -136.500000,  -1.209282, 104.186824,  28.899492,   0.592810,   0.765603,   0.190587,   0.161354, 
19113,   0.321985,   9.401475,  -3.010074,  54.934668,  -0.539709,   0.596983,   0.181981,  -0.998946,  -0.166329, -70.500000, -807.000000, -132.000000,  -1.233249, 104.827352,  28.848336,   0.588543,   0.769011,   0.191016,   0.160182, 
19114,   0.652424,   9.015093,  -3.213644,  49.668568,  -0.484914,   0.436475,   0.190162,  -1.000035,  -0.153688, -66.000000, -807.000000, -127.500000,  -1.237867, 105.352344,  28.825046,   0.585046,   0.771755,   0.191570,   0.159219, 
19115,   0.735345,   8.931055,  -3.256363,  44.598292,  -0.285541,   0.418006,   0.191505,  -1.009720,  -0.122827, -64.500000, -808.500000, -117.000000,  -1.241689, 105.824936,  28.819030,   0.581855,   0.774169,   0.192163,   0.158421, 
19116,   0.322240,   9.041626,  -3.204022,  39.694160,  -0.272526,   0.369046,   0.190634,  -1.016599,  -0.109792, -64.500000, -810.000000, -112.500000,  -1.249061, 106.281024,  28.804998,   0.578773,   0.776508,   0.192659,   0.157634, 
19117,   0.402939,   9.090761,  -3.251059,  35.033592,  -0.139555,   0.306528,   0.193702,  -1.015334,  -0.114654, -63.000000, -810.000000, -114.000000,  -1.262045, 106.685880,  28.796236,   0.576020,   0.778587,   0.193091,   0.156998, 
19118,   0.444294,   9.031200,  -3.230922,  30.671686,  -0.283698,   0.308133,   0.181752,  -1.021575,  -0.113935, -69.000000, -811.500000, -114.000000,  -1.276137, 107.067424,  28.756572,   0.573454,   0.780585,   0.193272,   0.156251, 
19119,   0.124063,   9.097111,  -3.197068,  27.003818,  -0.201235,   0.286597,   0.181239,  -1.024018,  -0.100323, -69.000000, -811.500000, -109.500000,  -1.267292, 107.402912,  28.713994,   0.571235,   0.782315,   0.193481,   0.155411, 
19120,   0.209069,   9.184998,  -3.224177,  24.611776,  -0.206825,   0.242741,   0.187581,  -1.015059,  -0.095278, -66.000000, -808.500000, -108.000000,  -1.262544, 107.699400,  28.685408,   0.569255,   0.783833,   0.193710,   0.154735, 
19121,   0.224156,   9.201921,  -3.212775,  23.002892,  -0.139181,   0.182704,   0.188999,  -1.000124,  -0.102621, -66.000000, -804.000000, -111.000000,  -1.257744, 107.968392,  28.655590,   0.567466,   0.785216,   0.193893,   0.154100, 
19122,   0.172861,   9.273204,  -3.123665,  22.430426,  -0.052226,   0.113153,   0.192067,  -0.998857,  -0.107482, -64.500000, -804.000000, -112.500000,  -1.252098, 108.214232,  28.627196,   0.565834,   0.786480,   0.194059,   0.153507, 
19123,   0.202400,   9.405357,  -2.931290,  22.617630,  -0.031868,   0.119446,   0.190854,  -1.007365,  -0.085372, -64.500000, -805.500000, -105.000000,  -1.255673, 108.422744,  28.620186,   0.564403,   0.787523,   0.194271,   0.153143, 
19124,   0.163122,   9.397397,  -2.942670,  24.109084,  -0.103089,   0.200366,   0.195779,  -1.013342,  -0.072985, -61.500000, -807.000000, -100.500000,  -1.252266, 108.631696,  28.623202,   0.562964,   0.788535,   0.194586,   0.152779, 
19125,   0.247563,   9.463387,  -2.775110,  26.291502,  -0.173389,   0.192215,   0.187785,  -1.008631,  -0.080510, -66.000000, -805.500000, -103.500000,  -1.264021, 108.835488,  28.619480,   0.561542,   0.789553,   0.194773,   0.152494, 
19126,   0.118212,   9.432851,  -2.985473,  28.687194,  -0.279438,   0.247667,   0.183423,  -0.991793,  -0.077553, -69.000000, -799.500000, -103.500000,  -1.258610, 109.072056,  28.603806,   0.559941,   0.790730,   0.195006,   0.151978, 
19127,   0.268584,   9.353313,  -3.052406,  30.911324,  -0.174602,   0.295305,   0.186150,  -0.992155,  -0.073339, -67.500000, -799.500000, -102.000000,  -1.269257, 109.342280,  28.594552,   0.558071,   0.792081,   0.195249,   0.151547, 
19128,   0.129579,   9.357409,  -3.115538,  33.229618,  -0.210757,   0.260248,   0.196341,  -1.002478,  -0.057640, -61.500000, -802.500000, -96.000000,  -1.266778, 109.638528,  28.598824,   0.556026,   0.793520,   0.195684,   0.151047, 
19129,   0.243992,   9.271109,  -3.281629,  35.179204,  -0.175423,   0.316198,   0.196341,  -1.002478,  -0.057640, -61.500000, -802.500000, -96.000000,  -1.268552, 109.966624,  28.598486,   0.553744,   0.795104,   0.196103,   0.150495, 
19130,   0.196272,   9.270178,  -3.242576,  36.717588,  -0.250340,   0.274762,   0.179653,  -0.999123,  -0.064193, -70.500000, -801.000000, -99.000000,  -1.272979, 110.309624,  28.570044,   0.551388,   0.796807,   0.196332,   0.149801, 
19131,   0.164123,   9.207090,  -3.320038,  37.744976,  -0.349952,   0.393581,   0.178969,  -1.002381,  -0.046043, -70.500000, -801.000000, -93.000000,  -1.267203, 110.662592,  28.545104,   0.548975,   0.798540,   0.196647,   0.149036, 
19132,   0.212713,   9.164434,  -3.472295,  38.625168,  -0.293377,   0.449731,   0.188397,  -0.989349,  -0.036208, -66.000000, -796.500000, -90.000000,  -1.269947, 111.036904,  28.537128,   0.546377,   0.800356,   0.197067,   0.148376, 
19133,   0.193257,   9.116325,  -3.511097,  39.334840,  -0.247430,   0.282372,   0.194005,  -0.992067,  -0.041971, -63.000000, -798.000000, -91.500000,  -1.266698, 111.422648,  28.525512,   0.543695,   0.802199,   0.197497,   0.147632, 
19134,   0.200218,   9.065025,  -3.656063,  39.602048,  -0.319609,   0.398139,   0.189519,  -1.008268,  -0.029767, -64.500000, -802.500000, -87.000000,  -1.267904, 111.816976,  28.508596,   0.540948,   0.804092,   0.197879,   0.146879, 
19135,   0.198069,   9.059373,  -3.719427,  40.098940,  -0.248703,   0.377797,   0.190487,  -1.025196,  -0.009136, -63.000000, -807.000000, -79.500000,  -1.269737, 112.221104,  28.496772,   0.538124,   0.806023,   0.198305,   0.146139, 
19136,   0.187750,   9.089430,  -3.653976,  41.042884,  -0.322216,   0.343375,   0.189973,  -1.027640,   0.004476, -63.000000, -807.000000, -75.000000,  -1.269116, 112.617184,  28.491098,   0.535347,   0.807892,   0.198773,   0.145423, 
19137,   0.217407,   9.067617,  -3.746425,  42.176316,  -0.333746,   0.338250,   0.186157,  -1.002744,   0.013126, -66.000000, -798.000000, -73.500000,  -1.269365, 113.020488,  28.490200,   0.532494,   0.809764,   0.199274,   0.144718, 
19138,   0.168371,   9.004770,  -3.844801,  43.163984,  -0.308965,   0.410492,   0.182901,  -1.007631,   0.012872, -67.500000, -799.500000, -73.500000,  -1.268889, 113.437912,  28.478298,   0.529558,   0.811719,   0.199718,   0.143933, 
19139,   0.168383,   8.930480,  -3.935147,  43.610056,  -0.354405,   0.423301,   0.183088,  -1.004010,   0.017987, -67.500000, -798.000000, -72.000000,  -1.265509, 113.869848,  28.458502,   0.526533,   0.813753,   0.200137,   0.143067, 
19140,   0.184774,   8.889227,  -4.031839,  44.056992,  -0.310838,   0.446405,   0.177326,  -0.999300,   0.037940, -70.500000, -795.000000, -66.000000,  -1.262433, 114.310624,  28.437854,   0.523424,   0.815794,   0.200550,   0.142178, 
19141,   0.163942,   8.899987,  -4.052053,  44.459996,  -0.364945,   0.484695,   0.173556,  -1.006630,   0.051299, -72.000000, -796.500000, -61.500000,  -1.259025, 114.750600,  28.417770,   0.520318,   0.817828,   0.200967,   0.141291, 
19142,   0.219039,   8.824864,  -4.131956,  44.862560,  -0.463532,   0.522190,   0.182062,  -1.008897,   0.045212, -67.500000, -798.000000, -63.000000,  -1.258712, 115.199584,  28.396318,   0.517143,   0.819908,   0.201369,   0.140405, 
19143,   0.181650,   8.765617,  -4.285718,  45.061304,  -0.348635,   0.465500,   0.184618,  -1.010075,   0.053963, -66.000000, -798.000000, -60.000000,  -1.256672, 115.658008,  28.375652,   0.513884,   0.821998,   0.201789,   0.139490, 
19144,   0.211752,   8.721331,  -4.369327,  44.794620,  -0.401547,   0.435513,   0.181924,  -1.004099,   0.069055, -67.500000, -795.000000, -55.500000,  -1.256707, 116.119696,  28.358702,   0.510586,   0.824089,   0.202226,   0.138600, 
19145,   0.206563,   8.691367,  -4.451419,  44.228784,  -0.311401,   0.413476,   0.186598,  -0.984276,   0.061966, -66.000000, -789.000000, -58.500000,  -1.255801, 116.578256,  28.343282,   0.507311,   0.826162,   0.202675,   0.137717, 
19146,   0.197007,   8.663116,  -4.492231,  44.073944,  -0.346860,   0.367625,   0.179931,  -0.992058,   0.075649, -69.000000, -790.500000, -54.000000,  -1.254969, 117.032184,  28.325722,   0.504054,   0.828191,   0.203094,   0.136829, 
19147,   0.178571,   8.665610,  -4.521874,  44.021720,  -0.399590,   0.470548,   0.171846,  -1.014775,   0.096674, -72.000000, -796.500000, -46.500000,  -1.250994, 117.478320,  28.299850,   0.500861,   0.830185,   0.203455,   0.135895, 
19148,   0.209647,   8.631248,  -4.542322,  44.339176,  -0.436155,   0.421178,   0.176520,  -0.994953,   0.089585, -70.500000, -790.500000, -49.500000,  -1.253572, 117.919184,  28.274972,   0.497693,   0.832161,   0.203786,   0.135023, 
19149,   0.177346,   8.618433,  -4.571491,  44.682436,  -0.454586,   0.450741,   0.185931,  -0.984727,   0.089769, -66.000000, -787.500000, -49.500000,  -1.251515, 118.361056,  28.255746,   0.494507,   0.834106,   0.204174,   0.134138, 
19150,   0.193594,   8.559431,  -4.656393,  45.335764,  -0.394088,   0.398093,   0.186182,  -1.010526,   0.109244, -64.500000, -795.000000, -42.000000,  -1.250246, 118.805512,  28.242466,   0.491282,   0.836034,   0.204600,   0.133278, 
19151,   0.159034,   8.514844,  -4.754648,  45.884544,  -0.457064,   0.507455,   0.182395,  -1.020663,   0.112951, -66.000000, -798.000000, -40.500000,  -1.247873, 119.260368,  28.222176,   0.487991,   0.838018,   0.204991,   0.132363, 
19152,   0.193457,   8.458799,  -4.880725,  46.005452,  -0.386120,   0.518750,   0.181273,  -1.001743,   0.106510, -67.500000, -792.000000, -43.500000,  -1.244786, 119.727096,  28.191644,   0.484617,   0.840053,   0.205318,   0.131375, 
19153,   0.194720,   8.403396,  -4.961015,  45.833068,  -0.466243,   0.428398,   0.167346,  -0.993138,   0.123475, -75.000000, -787.500000, -39.000000,  -1.243568, 120.196064,  28.153844,   0.481217,   0.842089,   0.205580,   0.130365, 
19154,   0.190108,   8.352194,  -5.063183,  45.464800,  -0.376762,   0.365010,   0.170448,  -0.986259,   0.137918, -73.500000, -784.500000, -34.500000,  -1.241066, 120.664112,  28.115760,   0.477825,   0.844121,   0.205842,   0.129348, 
19155,   0.211041,   8.322019,  -5.089014,  44.958380,  -0.339596,   0.447121,   0.180794,  -0.998574,   0.139427, -67.500000, -789.000000, -33.000000,  -1.241727, 121.125208,  28.088040,   0.474455,   0.846088,   0.206154,   0.128409, 
19156,   0.198554,   8.324470,  -5.108582,  45.017300,  -0.464411,   0.419444,   0.179922,  -1.005453,   0.152462, -67.500000, -790.500000, -28.500000,  -1.240647, 121.577600,  28.063402,   0.471135,   0.847989,   0.206479,   0.127484, 
19157,   0.213567,   8.246000,  -5.208260,  45.189572,  -0.402257,   0.474663,   0.181030,  -0.986534,   0.173500, -67.500000, -783.000000, -22.500000,  -1.242643, 122.032552,  28.046554,   0.467782,   0.849889,   0.206852,   0.126610, 
19158,   0.187954,   8.203126,  -5.294645,  44.760988,  -0.321183,   0.480085,   0.181577,  -0.978477,   0.179192, -67.500000, -780.000000, -21.000000,  -1.241657, 122.492400,  28.036472,   0.464383,   0.851781,   0.207288,   0.125731, 
19159,   0.188582,   8.183088,  -5.324753,  44.606824,  -0.294546,   0.400534,   0.181030,  -0.986534,   0.173500, -67.500000, -783.000000, -22.500000,  -1.239899, 122.945376,  28.021780,   0.461026,   0.853625,   0.207679,   0.124837, 
19160,   0.185967,   8.130529,  -5.337201,  44.880540,  -0.401873,   0.410345,   0.178849,  -0.978114,   0.174979, -69.000000, -780.000000, -22.500000,  -1.235534, 123.392352,  27.999846,   0.457726,   0.855455,   0.208019,   0.123906, 
19161,   0.220012,   8.067506,  -5.522302,  44.879548,  -0.481319,   0.530764,   0.178507,  -0.979743,   0.184054, -69.000000, -780.000000, -19.500000,  -1.237148, 123.850632,  27.975244,   0.454328,   0.857332,   0.208324,   0.122989, 
19162,   0.206124,   8.018577,  -5.556079,  44.563128,  -0.365442,   0.433605,   0.165327,  -0.997299,   0.197230, -75.000000, -784.500000, -15.000000,  -1.237027, 124.310360,  27.939100,   0.450918,   0.859201,   0.208542,   0.122007, 
19163,   0.174431,   7.966781,  -5.633137,  44.196576,  -0.369192,   0.502024,   0.165890,  -0.986436,   0.212575, -75.000000, -780.000000, -10.500000,  -1.232459, 124.763832,  27.895366,   0.447569,   0.861056,   0.208713,   0.120976, 
19164,   0.191827,   7.946736,  -5.660692,  43.694812,  -0.470338,   0.404770,   0.168258,  -0.991234,   0.216211, -73.500000, -781.500000,  -9.000000,  -1.230245, 125.215448,  27.856076,   0.444223,   0.862892,   0.208903,   0.119985, 
19165,   0.195731,   7.899079,  -5.711188,  43.601308,  -0.376275,   0.394774,   0.171156,  -0.990783,   0.215887, -72.000000, -781.500000,  -9.000000,  -1.229429, 125.656352,  27.818172,   0.440933,   0.864650,   0.209077,   0.119026, 
19166,   0.211786,   7.860055,  -5.804603,  43.506840,  -0.362804,   0.474233,   0.169350,  -0.975122,   0.227596, -73.500000, -775.500000,  -6.000000,  -1.228998, 126.097608,  27.782656,   0.437638,   0.866405,   0.209267,   0.118082, 
19167,   0.214637,   7.790621,  -5.898925,  43.249688,  -0.422815,   0.413281,   0.169537,  -0.971501,   0.232711, -73.500000, -774.000000,  -4.500000,  -1.228609, 126.545656,  27.748170,   0.434289,   0.868186,   0.209470,   0.117131, 
19168,   0.192709,   7.772318,  -5.931100,  42.845708,  -0.361540,   0.423457,   0.180429,  -0.975759,   0.239912, -67.500000, -775.500000,  -1.500000,  -1.225804, 126.986512,  27.719722,   0.430973,   0.869886,   0.209711,   0.116194, 
19169,   0.204432,   7.725112,  -5.957275,  42.640152,  -0.310774,   0.400820,   0.180258,  -0.976574,   0.244450, -67.500000, -775.500000,   0.000000,  -1.223925, 127.420024,  27.697298,   0.427705,   0.871547,   0.209985,   0.115301, 
19170,   0.199264,   7.683241,  -6.027899,  42.536592,  -0.360891,   0.411361,   0.165784,  -0.976025,   0.255722, -75.000000, -774.000000,   3.000000,  -1.222470, 127.853016,  27.665094,   0.424448,   0.873225,   0.210182,   0.114378, 
19171,   0.181591,   7.654474,  -6.055592,  42.410564,  -0.373601,   0.381704,   0.169774,  -0.959460,   0.266783, -73.500000, -768.000000,   6.000000,  -1.219775, 128.282288,  27.631372,   0.421209,   0.874862,   0.210359,   0.113444, 
19172,   0.196130,   7.638972,  -6.048609,  42.854048,  -0.379131,   0.466752,   0.171021,  -0.945339,   0.263979, -73.500000, -763.500000,   4.500000,  -1.220014, 128.703400,  27.608016,   0.418011,   0.876441,   0.210594,   0.112586, 
19173,   0.184309,   7.636667,  -6.089157,  43.571612,  -0.281037,   0.450290,   0.164508,  -0.955113,   0.263471, -76.500000, -766.500000,   4.500000,  -1.220426, 129.126848,  27.577746,   0.414802,   0.878043,   0.210777,   0.111702, 
19174,   0.184053,   7.532258,  -6.153820,  44.460316,  -0.338433,   0.450358,   0.168903,  -0.966339,   0.279818, -73.500000, -769.500000,  10.500000,  -1.217927, 129.561600,  27.539844,   0.411509,   0.879680,   0.210918,   0.110746, 
19175,   0.193782,   7.477769,  -6.250244,  45.173564,  -0.387596,   0.435101,   0.181025,  -0.959283,   0.274563, -67.500000, -768.000000,   9.000000,  -1.219184, 130.004776,  27.511474,   0.408125,   0.881309,   0.211120,   0.109837, 
19176,   0.169873,   7.405040,  -6.350538,  45.121252,  -0.366607,   0.457139,   0.174341,  -0.969871,   0.278593, -70.500000, -771.000000,  10.500000,  -1.214721, 130.460600,  27.476836,   0.404660,   0.882990,   0.211305,   0.108841, 
19177,   0.214483,   7.304168,  -6.438011,  45.158804,  -0.332089,   0.459132,   0.158995,  -0.976201,   0.302900, -78.000000, -771.000000,  18.000000,  -1.215397, 130.921448,  27.427486,   0.401153,   0.884708,   0.211359,   0.107823, 
19178,   0.228701,   7.314628,  -6.479407,  45.035804,  -0.321888,   0.465695,   0.163499,  -0.957194,   0.300349, -76.500000, -765.000000,  16.500000,  -1.216404, 131.380344,  27.376172,   0.397648,   0.886392,   0.211386,   0.106804, 
19179,   0.200870,   7.240381,  -6.567730,  44.218912,  -0.432663,   0.470199,   0.170028,  -0.944613,   0.310508, -73.500000, -760.500000,  19.500000,  -1.215656, 131.833728,  27.335446,   0.394179,   0.888037,   0.211495,   0.105822, 
19180,   0.169068,   7.102470,  -6.660587,  43.428516,  -0.469430,   0.462773,   0.167163,  -0.939451,   0.330138, -75.000000, -757.500000,  25.500000,  -1.208676, 132.290256,  27.298848,   0.390688,   0.889671,   0.211657,   0.104800, 
19181,   0.155492,   7.015674,  -6.810582,  42.540096,  -0.389471,   0.429264,   0.166821,  -0.941080,   0.339213, -75.000000, -757.500000,  28.500000,  -1.199392, 132.750168,  27.261276,   0.387161,   0.891283,   0.211812,   0.103750, 
19182,   0.268776,   7.029637,  -6.797991,  41.343308,  -0.340860,   0.311541,   0.178584,  -0.938460,   0.333379, -69.000000, -757.500000,  27.000000,  -1.203047, 133.195128,  27.233936,   0.383716,   0.892836,   0.211989,   0.102864, 
19183,   0.195908,   7.014434,  -6.796118,  40.151888,  -0.297238,   0.381386,   0.181107,  -0.945250,   0.322825, -67.500000, -760.500000,  24.000000,  -1.203614, 133.613432,  27.207034,   0.380483,   0.894294,   0.212154,   0.102006, 
19184,   0.225994,   6.995513,  -6.785350,  39.772284,  -0.283555,   0.373579,   0.177900,  -0.941718,   0.351529, -69.000000, -757.500000,  33.000000,  -1.205142, 134.017368,  27.188352,   0.377337,   0.895652,   0.212358,   0.101206, 
19185,   0.171634,   7.029079,  -6.709733,  40.189924,  -0.313218,   0.366049,   0.181344,  -0.933210,   0.356898, -67.500000, -754.500000,  34.500000,  -1.203662, 134.407280,  27.178940,   0.374297,   0.896945,   0.212632,   0.100440, 
19186,   0.213891,   6.976643,  -6.780731,  41.300656,  -0.304958,   0.355224,   0.178633,  -0.930040,   0.362337, -69.000000, -753.000000,  36.000000,  -1.201749, 134.803232,  27.166074,   0.371214,   0.898265,   0.212885,   0.099650, 
19187,   0.263343,   6.977904,  -6.789346,  42.486676,  -0.397535,   0.374381,   0.166512,  -0.937096,   0.367593, -75.000000, -754.500000,  37.500000,  -1.212097, 135.203216,  27.138516,   0.368080,   0.899614,   0.212982,   0.098898, 
19188,   0.129895,   6.871398,  -6.883528,  43.377084,  -0.460418,   0.462366,   0.165640,  -0.943975,   0.380628, -75.000000, -756.000000,  42.000000,  -1.206746, 135.620096,  27.100718,   0.364845,   0.901006,   0.213059,   0.097960, 
19189,   0.182914,   6.735431,  -6.971159,  44.022828,  -0.283851,   0.490023,   0.173245,  -0.918089,   0.392519, -72.000000, -747.000000,  45.000000,  -1.202691, 136.055440,  27.084334,   0.361442,   0.902417,   0.213314,   0.097067, 
19190,   0.128293,   6.715233,  -7.112630,  44.373864,  -0.400602,   0.430895,   0.177219,  -0.904330,   0.393928, -70.500000, -742.500000,  45.000000,  -1.193906, 136.503664,  27.072774,   0.357940,   0.903848,   0.213631,   0.096127, 
19191,   0.241393,   6.638052,  -7.165545,  44.152484,  -0.213413,   0.405673,   0.182486,  -0.908677,   0.397240, -67.500000, -744.000000,  46.500000,  -1.193373, 136.953056,  27.065994,   0.354394,   0.905246,   0.213952,   0.095262, 
19192,   0.166956,   6.537471,  -7.255873,  43.506500,  -0.398433,   0.464893,   0.179400,  -0.912750,   0.392449, -69.000000, -745.500000,  45.000000,  -1.191324, 137.403248,  27.044102,   0.350858,   0.906673,   0.214158,   0.094338, 
19193,   0.169199,   6.436568,  -7.339729,  42.750772,  -0.405677,   0.447736,   0.172749,  -0.917725,   0.415785, -72.000000, -745.500000,  52.500000,  -1.183808, 137.855552,  27.013418,   0.347321,   0.908116,   0.214312,   0.093341, 
19194,   0.239236,   6.371392,  -7.398267,  42.107984,  -0.288889,   0.381809,   0.179449,  -0.904330,   0.421406, -69.000000, -741.000000,  54.000000,  -1.185786, 138.303376,  26.999282,   0.343772,   0.909481,   0.214553,   0.092475, 
19195,   0.206955,   6.370376,  -7.417983,  41.360092,  -0.367189,   0.389585,   0.178328,  -0.885411,   0.414966, -70.500000, -735.000000,  51.000000,  -1.184493, 138.736048,  26.986474,   0.340349,   0.910796,   0.214803,   0.091616, 
19196,   0.266186,   6.383656,  -7.379763,  40.587848,  -0.303091,   0.399622,   0.177986,  -0.887040,   0.424040, -70.500000, -735.000000,  54.000000,  -1.191318, 139.147072,  26.978052,   0.337078,   0.912044,   0.215046,   0.090875, 
19197,   0.116418,   6.339473,  -7.444647,  40.449200,  -0.418079,   0.465676,   0.180354,  -0.891838,   0.427676, -69.000000, -736.500000,  55.500000,  -1.186782, 139.551632,  26.963400,   0.333873,   0.913244,   0.215260,   0.090036, 
19198,   0.162548,   6.202230,  -7.466233,  40.433240,  -0.302611,   0.424036,   0.176772,  -0.895548,   0.446150, -70.500000, -736.500000,  61.500000,  -1.174518, 139.962816,  26.942114,   0.330633,   0.914465,   0.215447,   0.089103, 
19199,   0.229728,   6.203416,  -7.615042,  40.682140,  -0.330302,   0.339257,   0.180762,  -0.878984,   0.457211, -69.000000, -730.500000,  64.500000,  -1.176240, 140.379040,  26.939516,   0.327310,   0.915673,   0.215745,   0.088327, 
19200,   0.191059,   6.183981,  -7.566360,  40.699820,  -0.276919,   0.349103,   0.175666,  -0.873822,   0.449362, -72.000000, -729.000000,  61.500000,  -1.171942, 140.790016,  26.924544,   0.324045,   0.916870,   0.215954,   0.087476, 
19201,   0.228240,   6.123443,  -7.506518,  40.810728,  -0.348251,   0.366464,   0.170229,  -0.870289,   0.450588, -75.000000, -727.500000,  61.500000,  -1.176110, 141.191584,  26.905290,   0.320834,   0.918030,   0.216091,   0.086698, 
19202,   0.194657,   6.150358,  -7.606488,  41.050556,  -0.392741,   0.472750,   0.175512,  -0.871830,   0.463552, -72.000000, -727.500000,  66.000000,  -1.175480, 141.591968,  26.892308,   0.317636,   0.919172,   0.216291,   0.085901, 
19203,   0.177468,   6.053553,  -7.627338,  41.522404,  -0.429121,   0.529520,   0.177522,  -0.881064,   0.466610, -70.500000, -730.500000,  67.500000,  -1.173905, 141.993760,  26.873506,   0.314433,   0.920328,   0.216447,   0.085079, 
19204,   0.208255,   5.948313,  -7.665540,  42.365228,  -0.325008,   0.392704,   0.182025,  -0.862056,   0.464059, -69.000000, -724.500000,  66.000000,  -1.172095, 142.409664,  26.863862,   0.311097,   0.921469,   0.216679,   0.084252, 
19205,   0.213290,   5.968443,  -7.696768,  43.464056,  -0.363195,   0.378022,   0.173518,  -0.859789,   0.470146, -73.500000, -723.000000,  67.500000,  -1.174689, 142.828112,  26.846496,   0.307737,   0.922630,   0.216838,   0.083434, 
19206,   0.208021,   5.861539,  -7.714586,  44.657924,  -0.330025,   0.443981,   0.170124,  -0.859878,   0.493735, -75.000000, -721.500000,  75.000000,  -1.174513, 143.258960,  26.828620,   0.304282,   0.923825,   0.217009,   0.082570, 
19207,   0.167112,   5.747836,  -7.812935,  45.326652,  -0.438284,   0.449425,   0.182262,  -0.850015,   0.498131, -69.000000, -718.500000,  76.500000,  -1.171898, 143.707552,  26.826740,   0.300669,   0.925008,   0.217321,   0.081693, 
19208,   0.172945,   5.701417,  -7.968136,  45.353296,  -0.349379,   0.451298,   0.176808,  -0.849290,   0.489704, -72.000000, -718.500000,  73.500000,  -1.164434, 144.166032,  26.806164,   0.296993,   0.926232,   0.217498,   0.080709, 
19209,   0.173817,   5.609291,  -8.002423,  44.983904,  -0.357269,   0.481900,   0.171199,  -0.846571,   0.495467, -75.000000, -717.000000,  75.000000,  -1.160929, 144.624720,  26.777814,   0.293312,   0.927475,   0.217602,   0.079738, 
19210,   0.153612,   5.448221,  -8.094747,  43.953536,  -0.336852,   0.531832,   0.176841,  -0.843676,   0.509010, -72.000000, -715.500000,  79.500000,  -1.151867, 145.088320,  26.754738,   0.289591,   0.928693,   0.217759,   0.078725, 
19211,   0.248459,   5.371250,  -8.221569,  42.819904,  -0.361350,   0.449285,   0.173960,  -0.841321,   0.518986, -73.500000, -714.000000,  82.500000,  -1.151134, 145.550576,  26.729572,   0.285859,   0.929895,   0.217871,   0.077777, 
19212,   0.188235,   5.302382,  -8.235639,  41.394548,  -0.349252,   0.433798,   0.169051,  -0.832539,   0.516251, -76.500000, -711.000000,  81.000000,  -1.145547, 146.001440,  26.695548,   0.282234,   0.931081,   0.217914,   0.076790, 
19213,   0.235494,   5.276211,  -8.247107,  40.072972,  -0.275511,   0.342223,   0.169768,  -0.823668,   0.517406, -76.500000, -708.000000,  81.000000,  -1.144918, 146.431808,  26.667382,   0.278755,   0.932189,   0.217974,   0.075898, 
19214,   0.185465,   5.310744,  -8.277555,  38.973328,  -0.317302,   0.372881,   0.171982,  -0.826474,   0.535233, -75.000000, -708.000000,  87.000000,  -1.142309, 146.841824,  26.644618,   0.275435,   0.933212,   0.218062,   0.075041, 
19215,   0.159966,   5.305990,  -8.208109,  38.191556,  -0.341970,   0.416048,   0.174709,  -0.826837,   0.539446, -73.500000, -708.000000,  88.500000,  -1.138693, 147.230224,  26.624374,   0.272291,   0.934178,   0.218160,   0.074224, 
19216,   0.173633,   5.223326,  -8.202883,  38.098660,  -0.284562,   0.389935,   0.177966,  -0.821950,   0.539700, -72.000000, -706.500000,  88.500000,  -1.132159, 147.610016,  26.607142,   0.269221,   0.935117,   0.218282,   0.073408, 
19217,   0.191283,   5.128783,  -8.315406,  38.234928,  -0.306748,   0.364934,   0.180709,  -0.819507,   0.553566, -70.500000, -705.000000,  93.000000,  -1.128383, 147.999184,  26.595502,   0.266055,   0.936035,   0.218441,   0.072607, 
19218,   0.155952,   5.060876,  -8.371520,  37.968708,  -0.308112,   0.364878,   0.183591,  -0.821862,   0.543589, -69.000000, -706.500000,  90.000000,  -1.123017, 148.391744,  26.577524,   0.262867,   0.936967,   0.218553,   0.071773, 
19219,   0.164108,   4.979626,  -8.444366,  37.392892,  -0.339955,   0.450800,   0.177031,  -0.799410,   0.538373, -73.500000, -699.000000,  87.000000,  -1.115723, 148.784432,  26.555228,   0.259684,   0.937907,   0.218633,   0.070914, 
19220,   0.180219,   4.947466,  -8.451154,  36.563836,  -0.352562,   0.317668,   0.178669,  -0.775241,   0.555451, -73.500000, -690.000000,  91.500000,  -1.113725, 149.167664,  26.548156,   0.256556,   0.938789,   0.218817,   0.070151, 
19221,   0.173449,   4.935261,  -8.440196,  35.753500,  -0.274353,   0.364282,   0.183440,  -0.779224,   0.582028, -70.500000, -690.000000, 100.500000,  -1.108182, 149.535952,  26.556416,   0.253540,   0.939580,   0.219119,   0.069419, 
19222,   0.235163,   4.852184,  -8.459203,  35.090956,  -0.317504,   0.325273,   0.182380,  -0.789724,   0.589948, -70.500000, -693.000000, 103.500000,  -1.108321, 149.896304,  26.559156,   0.250582,   0.940366,   0.219358,   0.068737, 
19223,   0.205380,   4.794025,  -8.508514,  34.937576,  -0.290357,   0.346306,   0.176927,  -0.788998,   0.581521, -73.500000, -693.000000, 100.500000,  -1.109941, 150.256032,  26.548326,   0.247634,   0.941177,   0.219482,   0.068038, 
19224,   0.269890,   4.466855,  -8.937109,  33.588152,  -0.235364,   0.248289,   0.174045,  -0.786643,   0.591498, -75.000000, -691.500000, 103.500000,  -1.113799, 150.642976,  26.529280,   0.244458,   0.942047,   0.219546,   0.067288, 
19225,   0.190550,   4.959838,  -8.347395,  33.006238,  -0.224143,   0.247880,   0.185482,  -0.782846,   0.604391, -69.000000, -690.000000, 108.000000,  -1.107208, 150.953936,  26.537508,   0.241907,   0.942680,   0.219808,   0.066654, 
19226,   0.127052,   4.896958,  -8.291058,  34.381564,  -0.260319,   0.364890,   0.187071,  -0.767095,   0.592511, -69.000000, -685.500000, 103.500000,  -1.111284, 151.253744,  26.555930,   0.239421,   0.943275,   0.220124,   0.066151, 
19227,   0.206264,   4.806606,  -8.284826,  36.989996,  -0.286203,   0.342881,   0.172393,  -0.772974,   0.589017, -76.500000, -687.000000, 102.000000,  -1.105267, 151.578800,  26.541988,   0.236765,   0.943980,   0.220210,   0.065448, 
19228,   0.169493,   4.813900,  -8.349029,  39.624384,  -0.374976,   0.405137,   0.174249,  -0.780216,   0.606265, -75.000000, -688.500000, 108.000000,  -1.112792, 151.921344,  26.535262,   0.233934,   0.944709,   0.220336,   0.064839, 
19229,   0.139443,   4.569714,  -8.496174,  41.411996,  -0.304323,   0.530521,   0.172256,  -0.768175,   0.612859, -76.500000, -684.000000, 109.500000,  -1.099864, 152.310528,  26.517604,   0.230756,   0.945513,   0.220432,   0.063947, 
19230,   0.239712,   4.594788,  -8.463540,  42.906808,  -0.366886,   0.371818,   0.180607,  -0.768450,   0.620962, -72.000000, -684.000000, 112.500000,  -1.110360, 152.710976,  26.518962,   0.227429,   0.946313,   0.220644,   0.063265, 
19231,   0.083155,   4.568192,  -8.508397,  44.897640,  -0.401690,   0.454052,   0.180933,  -0.769627,   0.602234, -72.000000, -685.500000, 106.500000,  -1.096438, 153.126592,  26.501748,   0.224034,   0.947169,   0.220759,   0.062317, 
19232,   0.280463,   4.585373,  -8.291702,  47.883004,  -0.409221,   0.518717,   0.179827,  -0.747901,   0.605446, -73.500000, -678.000000, 106.500000,  -1.106775, 153.545584,  26.496370,   0.220551,   0.947992,   0.220920,   0.061584, 
19233,   0.152190,   4.542099,  -8.291900,  52.487692,  -0.516863,   0.483402,   0.175653,  -0.727441,   0.613519, -76.500000, -670.500000, 108.000000,  -1.109476, 153.992496,  26.493030,   0.216847,   0.948846,   0.221124,   0.060737, 
19234,   0.248047,   4.474198,  -8.319298,  57.186432,  -0.540826,   0.618868,   0.175686,  -0.721828,   0.632824, -76.500000, -667.500000, 114.000000,  -1.118095, 154.482832,  26.484770,   0.212774,   0.949793,   0.221299,   0.059847, 
19235,   0.167395,   4.238549,  -8.427141,  61.340504,  -0.572153,   0.614758,   0.175719,  -0.716215,   0.652129, -76.500000, -664.500000, 120.000000,  -1.118903, 155.034528,  26.483412,   0.208197,   0.950805,   0.221571,   0.058785, 
19236,   0.177162,   4.227906,  -8.480518,  64.924248,  -0.755903,   0.700289,   0.180643,  -0.722191,   0.664516, -73.500000, -666.000000, 124.500000,  -1.117508, 155.626256,  26.490238,   0.203283,   0.951851,   0.221930,   0.057641, 
19237,   0.152157,   4.229067,  -8.380049,  69.326024,  -0.634658,   0.684212,   0.180456,  -0.725812,   0.659401, -73.500000, -667.500000, 123.000000,  -1.116674, 156.239168,  26.494956,   0.198191,   0.952925,   0.222278,   0.056454, 
19238,   0.197051,   4.115060,  -8.289496,  74.969328,  -0.762725,   0.795356,   0.176094,  -0.708973,   0.662359, -76.500000, -661.500000, 123.000000,  -1.117699, 156.896544,  26.494536,   0.192716,   0.954036,   0.222591,   0.055185, 
19239,   0.114875,   3.989852,  -8.359833,  81.260328,  -0.812213,   0.908263,   0.176110,  -0.706167,   0.672012, -76.500000, -660.000000, 126.000000,  -1.110829, 157.648608,  26.488680,   0.186469,   0.955300,   0.222913,   0.053657, 
19240,   0.170503,   3.688116,  -8.570118,  86.845392,  -0.868555,   0.908835,   0.173587,  -0.699376,   0.682565, -78.000000, -657.000000, 129.000000,  -1.106470, 158.448928,  26.473368,   0.179807,   0.956598,   0.223160,   0.052038, 
19241,   0.185637,   3.414768,  -8.775174,  90.876480,  -0.985536,   0.915386,   0.175567,  -0.673578,   0.690568, -78.000000, -648.000000, 130.500000,  -1.104705, 159.320400,  26.457424,   0.172537,   0.957969,   0.223418,   0.050301, 
19242,   0.165533,   3.115762,  -9.053494,  92.559928,  -0.944746,   0.952062,   0.185182,  -0.656925,   0.705518, -73.500000, -642.000000, 135.000000,  -1.094752, 160.249072,  26.446526,   0.164794,   0.959366,   0.223745,   0.048390, 
19243,   0.205012,   2.799860,  -9.272367,  92.309624,  -1.059350,   1.043000,   0.188472,  -0.646425,   0.725077, -72.000000, -637.500000, 141.000000,  -1.086679, 161.211664,  26.442040,   0.156745,   0.960709,   0.224114,   0.046434, 
19244,   0.166164,   2.555697,  -9.448102,  90.634896,  -1.063955,   1.128905,   0.189018,  -0.638368,   0.730770, -72.000000, -634.500000, 142.500000,  -1.071405, 162.183344,  26.431710,   0.148628,   0.962020,   0.224433,   0.044391, 
19245,   0.165948,   2.339798,  -9.653627,  87.528480,  -0.870950,   0.941459,   0.183939,  -0.630401,   0.732573, -75.000000, -631.500000, 142.500000,  -1.054311, 163.144832,  26.412282,   0.140594,   0.963282,   0.224659,   0.042340, 
19246,   0.112919,   2.226679,  -9.720789,  84.041128,  -0.951639,   0.988637,   0.193896,  -0.612118,   0.738448, -70.500000, -625.500000, 144.000000,  -1.032008, 164.070608,  26.393436,   0.132856,   0.964403,   0.224858,   0.040313, 
19247,   0.120225,   1.938699,  -9.949915,  79.292736,  -0.895829,   1.067863,   0.197340,  -0.603611,   0.743817, -69.000000, -622.500000, 145.500000,  -1.016565, 164.928224,  26.379870,   0.125670,   0.965394,   0.225057,   0.038484, 
19248,   0.058603,  -1.162831, -14.731050,  63.174176,  -0.756590,   1.911014,   0.186139,  -0.595368,   0.764995, -75.000000, -618.000000, 151.500000,  -1.010451, 165.666064,  26.289556,   0.119492,   0.966361,   0.224545,   0.036889, 
19249,   0.636542,  -0.117820, -11.356191,  24.498722,  -0.001083,   0.027577,   0.189942,  -0.582424,   0.770941, -73.500000, -613.500000, 153.000000,  -1.008794, 166.079584,  26.211016,   0.116033,   0.966942,   0.224017,   0.035985, 
19250,   0.062350,   2.569205,  -9.811819,  13.919991,  -0.107142,  -1.126496,   0.187899,  -0.578804,   0.748577, -75.000000, -613.500000, 145.500000,  -0.998039, 166.254672,  26.218648,   0.114573,   0.967096,   0.224146,   0.035559, 
19251,  -0.154677,   2.632965,  -9.307032,  13.747375,   0.143452,   0.842919,   0.185718,  -0.570384,   0.750057, -76.500000, -610.500000, 145.500000,  -0.975491, 166.368048,  26.218066,   0.113661,   0.967203,   0.224198,   0.035147, 
19252,   0.886874,   1.595173,  -9.294073,  16.400616,   0.009623,   0.217050,   0.191718,  -0.563053,   0.764176, -73.500000, -607.500000, 150.000000,  -1.019792, 166.536368,  26.238812,   0.112146,   0.967334,   0.224380,   0.035211, 
19253,  -0.503856,   2.762927,  -9.475381,  16.967108,  -0.119208,  -0.370798,   0.188804,  -0.566311,   0.754848, -75.000000, -609.000000, 147.000000,  -1.017157, 166.717232,  26.254378,   0.110620,   0.967479,   0.224569,   0.034850, 
19254,   0.406351,   2.436233,  -9.285278,  17.972372,   0.115064,   0.671385,   0.186093,  -0.563142,   0.760287, -76.500000, -607.500000, 148.500000,  -1.035235, 166.873888,  26.250458,   0.109263,   0.967642,   0.224566,   0.034692, 
19255,   0.257913,   1.948010,  -9.220028,  20.787944,  -0.135756,  -0.146238,   0.189537,  -0.554634,   0.765655, -75.000000, -604.500000, 150.000000,  -1.069372, 167.091728,  26.244156,   0.107358,   0.967871,   0.224546,   0.034547, 
19256,  -0.117016,   3.168420,  -8.789992,  24.806806,  -0.099370,   0.081442,   0.197001,  -0.564594,   0.777141, -70.500000, -607.500000, 154.500000,  -1.053224, 167.286832,  26.269448,   0.105735,   0.968009,   0.224836,   0.034052, 
19257,   0.287146,   2.815784,  -8.165186,  34.525076,  -0.233441,   0.856247,   0.194086,  -0.567852,   0.767812, -72.000000, -609.000000, 151.500000,  -1.051162, 167.579504,  26.323792,   0.103250,   0.968162,   0.225382,   0.033509, 
19258,   0.296162,   2.977066,  -7.843960,  49.036596,  -0.438516,   0.333637,   0.181014,  -0.555174,   0.762089, -79.500000, -604.500000, 148.500000,  -1.047453, 167.996928,  26.345608,   0.099723,   0.968481,   0.225688,   0.032675, 
19259,  -0.008632,   3.188488,  -8.061496,  65.118204,  -0.624633,   0.751174,   0.183928,  -0.551916,   0.771418, -78.000000, -603.000000, 151.500000,  -1.041330, 168.569472,  26.359762,   0.094892,   0.968949,   0.225976,   0.031508, 
19260,   0.374357,   2.111697,  -8.520295,  77.524280,  -0.847464,   1.031835,   0.189040,  -0.554271,   0.788920, -75.000000, -603.000000, 157.500000,  -1.034382, 169.286528,  26.381004,   0.088834,   0.969472,   0.226352,   0.030050, 
19261,   0.123481,   1.930864,  -8.923009,  85.904080,  -1.046115,   0.746394,   0.189962,  -0.538973,   0.804842, -75.000000, -597.000000, 162.000000,  -1.024574, 170.085408,  26.395082,   0.082091,   0.970053,   0.226686,   0.028399, 
19262,  -0.015179,   1.635586,  -9.357425,  89.544872,  -1.008172,   1.109185,   0.197721,  -0.515077,   0.802544, -72.000000, -589.500000, 160.500000,  -0.984444, 170.938112,  26.386004,   0.074951,   0.970636,   0.226838,   0.026365, 
19263,   0.352726,   1.003320,  -9.542195,  90.867728,  -0.985073,   1.002327,   0.199343,  -0.493714,   0.809969, -72.000000, -582.000000, 162.000000,  -0.993903, 171.874320,  26.371068,   0.067004,   0.971251,   0.226915,   0.024583, 
19264,  -0.040316,   1.084805,  -9.604676,  90.772560,  -1.083473,   0.851580,   0.194622,  -0.481311,   0.812350, -75.000000, -577.500000, 162.000000,  -0.963477, 172.811936,  26.358946,   0.059117,   0.971794,   0.227023,   0.022461, 
19265,   0.198336,   0.744345,  -9.763063,  89.879424,  -1.044509,   1.112225,   0.194980,  -0.476875,   0.812927, -75.000000, -576.000000, 162.000000,  -0.941658, 173.744896,  26.346146,   0.051249,   0.972256,   0.227098,   0.020421, 
19266,   0.180749,   0.369398,  -9.884436,  88.351808,  -0.988806,   0.878812,   0.198783,  -0.463932,   0.818874, -73.500000, -571.500000, 163.500000,  -0.933004, 174.703504,  26.332412,   0.043133,   0.972682,   0.227149,   0.018442, 
19267,   0.086347,   0.496929,  -9.936396,  85.749592,  -1.018504,   0.858320,   0.206217,  -0.438859,   0.835303, -70.500000, -562.500000, 168.000000,  -0.907063, 175.616576,  26.320844,   0.035435,   0.973023,   0.227200,   0.016408, 
19268,   0.150064,   0.172867,  -9.952076,  82.771080,  -0.868808,   0.958712,   0.199128,  -0.421658,   0.834048, -75.000000, -556.500000, 166.500000,  -0.885738, 176.507728,  26.308412,   0.027911,   0.973282,   0.227219,   0.014456, 
19269,   0.182091,   0.087096,  -9.870321,  80.242760,  -0.877686,   0.789520,   0.190108,  -0.421834,   0.853747, -79.500000, -555.000000, 172.500000,  -0.874980, 177.375600,  26.296820,   0.020562,   0.973499,   0.227227,   0.012642, 
19270,   0.043171,   0.162339,  -9.777601,  78.520576,  -0.868645,   0.816158,   0.195904,  -0.420931,   0.853099, -76.500000, -555.000000, 172.500000,  -0.852569, 178.190880,  26.286792,   0.013680,   0.973634,   0.227228,   0.010833, 
19271,   0.177135,   0.000115,  -9.692581,  77.976400,  -0.793006,   0.866625,   0.197305,  -0.408803,   0.836104, -76.500000, -552.000000, 166.500000,  -0.839208, 178.995040,  26.275970,   0.006875,   0.973728,   0.227208,   0.009124, 
19272,   0.134304,  -0.029818,  -9.602954,  78.134880,  -0.805902,   0.734697,   0.196388,  -0.383456,   0.844431, -78.000000, -543.000000, 168.000000,  -0.831261, 179.789840,  26.266790,   0.000137,   0.973776,   0.227189,   0.007480, 
19273,   0.109770,  -0.115999,  -9.530540,  78.968176,  -0.842563,   0.899878,   0.198009,  -0.362092,   0.851856, -78.000000, -535.500000, 169.500000,  -0.813853, -179.419840,  26.257144,   0.006543,  -0.973765,  -0.227151,  -0.005766, 
19274,   0.189899,  -0.398801,  -9.595709,  80.057648,  -0.862935,   0.885410,   0.204009,  -0.354762,   0.865975, -75.000000, -532.500000, 174.000000,  -0.808170, -178.607120,  26.246548,   0.013437,  -0.973733,  -0.227099,  -0.004108, 
19275,   0.064821,  -0.469614,  -9.658592,  80.410208,  -0.917287,   0.852549,   0.206923,  -0.351504,   0.875304, -73.500000, -531.000000, 177.000000,  -0.789296, -177.787504,  26.236770,   0.020364,  -0.973615,  -0.227033,  -0.002324, 
19276,   0.121785,  -0.572300,  -9.573909,  80.607152,  -0.873154,   0.873876,   0.203074,  -0.332221,   0.864649, -76.500000, -525.000000, 172.500000,  -0.773707, -176.971728,  26.227014,   0.027264,  -0.973475,  -0.226959,  -0.000578, 
19277,   0.137944,  -0.748540,  -9.533383,  81.593760,  -0.872458,   0.874120,   0.204712,  -0.308052,   0.881727, -76.500000, -516.000000, 177.000000,  -0.761809, -176.147728,  26.217034,   0.034239,  -0.973270,  -0.226869,   0.001151, 
19278,   0.093362,  -0.828706,  -9.544197,  82.512832,  -0.939620,   0.911094,   0.200008,  -0.292842,   0.893759, -79.500000, -510.000000, 180.000000,  -0.746487, -175.317776,  26.207506,   0.041257,  -0.973015,  -0.226768,   0.002921, 
19279,   0.148092,  -1.047475,  -9.527217,  83.417552,  -0.915858,   0.939856,   0.197453,  -0.291664,   0.885009, -81.000000, -510.000000, 177.000000,  -0.732877, -174.474336,  26.197734,   0.048392,  -0.972718,  -0.226654,   0.004701, 
19280,   0.135336,  -1.112656,  -9.473847,  84.299752,  -0.872816,   0.862343,   0.212472,  -0.284157,   0.879429, -73.500000, -508.500000, 175.500000,  -0.722834, -173.625312,  26.188358,   0.055578,  -0.972339,  -0.226526,   0.006461, 
19281,   0.095619,  -1.240182,  -9.450099,  85.631704,  -0.865711,   0.918723,   0.213718,  -0.270036,   0.876624, -73.500000, -504.000000, 174.000000,  -0.706597, -172.770592,  26.179320,   0.062798,  -0.971928,  -0.226388,   0.008283, 
19282,   0.168024,  -1.447404,  -9.395930,  87.089392,  -0.994735,   0.890908,   0.219143,  -0.235730,   0.889995, -72.000000, -492.000000, 177.000000,  -0.697417, -171.894240,  26.169894,   0.070211,  -0.971435,  -0.226232,   0.010086, 
19283,   0.097589,  -1.514005,  -9.371583,  88.576560,  -1.014510,   0.979465,   0.217491,  -0.222060,   0.887513, -73.500000, -487.500000, 175.500000,  -0.682874, -171.007776,  26.161220,   0.077696,  -0.970878,  -0.226063,   0.011954, 
19284,   0.092160,  -1.700710,  -9.340602,  90.129904,  -0.921230,   0.977927,   0.211695,  -0.222963,   0.888161, -76.500000, -487.500000, 175.500000,  -0.667019, -170.106768,  26.151784,   0.085299,  -0.970275,  -0.225874,   0.013858, 
19285,   0.102131,  -1.933286,  -9.321998,  91.789136,  -1.108634,   1.028655,   0.210744,  -0.203229,   0.877183, -78.000000, -481.500000, 171.000000,  -0.652155, -169.179328,  26.142552,   0.093119,  -0.969561,  -0.225662,   0.015804, 
19286,   0.079139,  -1.954307,  -9.266512,  93.219616,  -1.097378,   0.974024,   0.214033,  -0.192729,   0.896742, -76.500000, -477.000000, 177.000000,  -0.635709, -168.245648,  26.133666,   0.100985,  -0.968790,  -0.225436,   0.017773, 
19287,   0.103499,  -2.143193,  -9.152164,  95.179592,  -0.965879,   1.091750,   0.220392,  -0.180963,   0.911439, -73.500000, -472.500000, 181.500000,  -0.618334, -167.295728,  26.124722,   0.108982,  -0.967956,  -0.225193,   0.019780, 
19288,   0.147080,  -2.347871,  -9.096896,  97.538336,  -1.160367,   1.037887,   0.213661,  -0.159326,   0.910761, -78.000000, -465.000000, 180.000000,  -0.606790, -166.315216,  26.115338,   0.117238,  -0.966998,  -0.224922,   0.021794, 
19289,   0.047899,  -2.430951,  -9.081429,  99.918128,  -1.134838,   1.110005,   0.214362,  -0.153261,   0.902263, -78.000000, -463.500000, 177.000000,  -0.587632, -165.319600,  26.106798,   0.125599,  -0.965962,  -0.224630,   0.023899, 
19290,   0.102459,  -2.714145,  -9.056167, 101.943384,  -1.160788,   1.199545,   0.219378,  -0.131809,   0.886099, -76.500000, -457.500000, 171.000000,  -0.569016, -164.291584,  26.098080,   0.134226,  -0.964827,  -0.224314,   0.026060, 
19291,   0.116262,  -2.945924,  -9.121140, 103.267720,  -1.268887,   1.144524,   0.218272,  -0.110083,   0.889310, -78.000000, -450.000000, 171.000000,  -0.554210, -163.238304,  26.089220,   0.143063,  -0.963580,  -0.223973,   0.028234, 
19292,   0.076200,  -3.128092,  -9.159333, 103.480816,  -1.137818,   1.164672,   0.216996,  -0.089172,   0.897060, -79.500000, -442.500000, 172.500000,  -0.530640, -162.179840,  26.080960,   0.151912,  -0.962231,  -0.223601,   0.030489, 
19293,   0.118388,  -3.270973,  -8.895247, 104.069952,  -1.175321,   1.247856,   0.206308,  -0.078486,   0.904626, -85.500000, -438.000000, 174.000000,  -0.512883, -161.115504,  26.072288,   0.160810,  -0.960800,  -0.223210,   0.032701, 
19294,   0.063915,  -3.304310,  -8.751150, 106.262008,  -1.241792,   1.219573,   0.206496,  -0.074865,   0.909740, -85.500000, -436.500000, 175.500000,  -0.492146, -160.045296,  26.064326,   0.169740,  -0.959287,  -0.222799,   0.034946, 
19295,   0.042903,  -3.473976,  -8.669391, 109.224304,  -1.266149,   1.269179,   0.226719,  -0.042285,   0.893112, -76.500000, -427.500000, 169.500000,  -0.469137, -158.953248,  26.056420,   0.178834,  -0.957659,  -0.222357,   0.037248, 
19296,   0.095802,  -3.752605,  -8.624334, 111.998608,  -1.210326,   1.257219,   0.234291,  -0.022011,   0.885699, -73.500000, -421.500000, 166.500000,  -0.450093, -157.820096,  26.048286,   0.188259,  -0.955858,  -0.221876,   0.039590, 
19297,   0.065029,  -3.936791,  -8.657147, 114.024560,  -1.277195,   1.269647,   0.229774,  -0.003180,   0.902846, -76.500000, -414.000000, 171.000000,  -0.428845, -156.661632,  26.041016,   0.197874,  -0.953924,  -0.221367,   0.041995, 
19298,   0.057053,  -4.226859,  -8.683372, 115.329576,  -1.288624,   1.362147,   0.233343,   0.038368,   0.898969, -76.500000, -400.500000, 168.000000,  -0.405508, -155.484976,  26.033934,   0.207616,  -0.951867,  -0.220823,   0.044447, 
19299,   0.104085,  -4.467085,  -8.621808, 115.551368,  -1.449700,   1.274699,   0.238375,   0.062626,   0.892457, -75.000000, -393.000000, 165.000000,  -0.384704, -154.293216,  26.027100,   0.217468,  -0.949682,  -0.220254,   0.046901, 
19300,   0.044358,  -4.619393,  -8.573963, 115.303552,  -1.315299,   1.352683,   0.240931,   0.061448,   0.901209, -73.500000, -393.000000, 168.000000,  -0.360645, -153.105440,  26.020700,   0.227259,  -0.947408,  -0.219657,   0.049368, 
19301,   0.038141,  -4.819860,  -8.485622, 115.268848,  -1.350807,   1.351670,   0.241632,   0.067513,   0.892711, -73.500000, -391.500000, 165.000000,  -0.332427, -151.918496,  26.014346,   0.237011,  -0.945036,  -0.219025,   0.051861, 
19302,   0.071982,  -5.056496,  -8.418252, 114.839056,  -1.394368,   1.337458,   0.238345,   0.097658,   0.897402, -76.500000, -381.000000, 165.000000,  -0.310227, -150.729760,  26.008376,   0.246760,  -0.942542,  -0.218377,   0.054299, 
19303,   0.012009,  -5.238725,  -8.486691, 113.645856,  -1.356191,   1.307586,   0.237052,   0.115763,   0.895498, -78.000000, -375.000000, 163.500000,  -0.281972, -149.555008,  26.003798,   0.256357,  -0.939982,  -0.217707,   0.056757, 
19304,   0.046933,  -5.478364,  -8.396299, 111.594640,  -1.244916,   1.269560,   0.240480,   0.121465,   0.891214, -76.500000, -373.500000, 162.000000,  -0.258614, -148.396224,  25.999286,   0.265807,  -0.937362,  -0.217031,   0.059136, 
19305,   0.036343,  -5.643255,  -8.362262, 109.292928,  -1.284406,   1.208690,   0.243144,   0.150521,   0.881067, -76.500000, -364.500000, 157.500000,  -0.235477, -147.260336,  25.995084,   0.275046,  -0.934706,  -0.216346,   0.061463, 
19306,   0.038724,  -5.746968,  -8.207102, 106.854904,  -1.198553,   1.244278,   0.240012,   0.178675,   0.871567, -79.500000, -355.500000, 153.000000,  -0.212630, -146.154144,  25.991656,   0.284018,  -0.932038,  -0.215660,   0.063727, 
19307,   0.048205,  -5.843671,  -8.022964, 105.437936,  -1.204178,   1.245974,   0.242926,   0.181933,   0.880896, -78.000000, -354.000000, 156.000000,  -0.191679, -145.067712,  25.988704,   0.292803,  -0.929318,  -0.214968,   0.065931, 
19308,   0.048284,  -5.965023,  -7.910325, 104.201432,  -1.210652,   1.162614,   0.245761,   0.211804,   0.866210, -78.000000, -345.000000, 150.000000,  -0.173687, -143.995504,  25.985832,   0.301452,  -0.926547,  -0.214270,   0.068077, 
19309,   0.018304,  -6.036174,  -7.717023, 103.463216,  -1.182305,   1.154985,   0.246570,   0.248102,   0.838815, -79.500000, -334.500000, 139.500000,  -0.153071, -142.937440,  25.983724,   0.309957,  -0.923743,  -0.213560,   0.070213, 
19310,   0.056434,  -6.110048,  -7.478954, 103.926336,  -1.236590,   1.185231,   0.252725,   0.253440,   0.838744, -76.500000, -333.000000, 139.500000,  -0.135627, -141.877376,  25.981942,   0.318462,  -0.920860,  -0.212841,   0.072321, 
19311,   0.023545,  -6.284337,  -7.427383, 104.579608,  -1.185077,   1.115017,   0.249297,   0.247739,   0.843028, -78.000000, -334.500000, 141.000000,  -0.115501, -140.812416,  25.980412,   0.326969,  -0.917877,  -0.212090,   0.074453, 
19312,   0.029749,  -6.477003,  -7.429238, 104.845016,  -1.247417,   1.221268,   0.254296,   0.266384,   0.817212, -76.500000, -330.000000, 132.000000,  -0.095355, -139.745392,  25.979388,   0.335463,  -0.914801,  -0.211318,   0.076582, 
19313,   0.027864,  -6.701014,  -7.399897, 103.978648,  -1.165802,   1.134848,   0.259533,   0.297070,   0.825467, -75.000000, -319.500000, 133.500000,  -0.076420, -138.681440,  25.978312,   0.343908,  -0.911663,  -0.210533,   0.078688, 
19314,   0.027859,  -6.917923,  -7.381159, 102.029144,  -1.178995,   1.156652,   0.255187,   0.316715,   0.838078, -78.000000, -312.000000, 136.500000,  -0.055511, -137.634032,  25.977984,   0.352193,  -0.908506,  -0.209741,   0.080775, 
19315,   0.031946,  -7.017889,  -7.337524,  99.385256,  -1.093344,   1.059424,   0.262026,   0.325312,   0.819857, -75.000000, -310.500000, 130.500000,  -0.039779, -136.617840,  25.977844,   0.360206,  -0.905358,  -0.208965,   0.082755, 
19316,  -0.009424,  -7.106096,  -7.163204,  96.877712,  -1.096476,   1.057853,   0.271266,   0.334723,   0.824578, -70.500000, -307.500000, 132.000000,  -0.020787, -135.626320,  25.978380,   0.367989,  -0.902214,  -0.208183,   0.084711, 
19317,   0.034505,  -7.228170,  -7.075026,  94.515960,  -1.126846,   1.013890,   0.264006,   0.351110,   0.827860, -75.000000, -301.500000, 132.000000,  -0.006953, -134.661888,  25.979136,   0.375545,  -0.899099,  -0.207424,   0.086572, 
19318,  -0.000934,  -7.404873,  -6.991017,  91.957456,  -1.058294,   1.091358,   0.249249,   0.371845,   0.800352, -84.000000, -295.500000, 121.500000,   0.011239, -133.720536,  25.980202,   0.382888,  -0.896002,  -0.206655,   0.088419, 
19319,   0.025249,  -7.495526,  -6.918883,  89.107176,  -0.998735,   1.017501,   0.250479,   0.383159,   0.787894, -84.000000, -292.500000, 117.000000,   0.026421, -132.812608,  25.980998,   0.389942,  -0.892939,  -0.205900,   0.090174, 
19320,   0.015941,  -7.534204,  -6.754913,  86.059360,  -0.947807,   0.906504,   0.260248,   0.397820,   0.788655, -79.500000, -288.000000, 117.000000,   0.040661, -131.933640,  25.982522,   0.396755,  -0.889936,  -0.205166,   0.091867, 
19321,   0.002604,  -7.576924,  -6.633467,  84.049480,  -0.978391,   0.979551,   0.267462,   0.413659,   0.780664, -76.500000, -283.500000, 114.000000,   0.053714, -131.082520,  25.984098,   0.403329,  -0.886971,  -0.204444,   0.093494, 
19322,  -0.010105,  -7.648901,  -6.492365,  82.196480,  -0.889274,   0.950084,   0.268367,   0.426151,   0.786934, -76.500000, -279.000000, 115.500000,   0.067979, -130.252224,  25.985736,   0.409716,  -0.884029,  -0.203722,   0.095089, 
19323,  -0.010754,  -7.732192,  -6.366329,  80.520432,  -0.952850,   0.906316,   0.266340,   0.432578,   0.774223, -78.000000, -277.500000, 111.000000,   0.082213, -129.438688,  25.987784,   0.415960,  -0.881118,  -0.203008,   0.096651, 
19324,  -0.011910,  -7.842538,  -6.308380,  78.968256,  -0.850943,   0.806899,   0.272853,   0.442352,   0.774730, -75.000000, -274.500000, 111.000000,   0.095015, -128.643032,  25.989790,   0.422037,  -0.878202,  -0.202297,   0.098162, 
19325,   0.006235,  -7.878576,  -6.176269,  76.949136,  -0.865071,   0.807612,   0.275346,   0.470594,   0.769120, -75.000000, -265.500000, 108.000000,   0.106535, -127.867344,  25.992200,   0.427955,  -0.875342,  -0.201606,   0.099627, 
19326,   0.002576,  -7.918704,  -6.057044,  75.557016,  -0.771992,   0.793930,   0.276730,   0.479917,   0.742472, -75.000000, -264.000000,  99.000000,   0.116165, -127.110512,  25.994758,   0.433702,  -0.872489,  -0.200924,   0.101038, 
19327,  -0.007624,  -7.983093,  -5.871329,  74.597232,  -0.761884,   0.792239,   0.269283,   0.492683,   0.740640, -79.500000, -259.500000,  97.500000,   0.126491, -126.358264,  25.996934,   0.439404,  -0.869635,  -0.200235,   0.102443, 
19328,  -0.030789,  -7.967087,  -5.671752,  74.229592,  -0.697840,   0.780624,   0.270358,   0.505990,   0.742372, -79.500000, -255.000000,  97.500000,   0.140688, -125.610552,  25.999050,   0.445039,  -0.866752,  -0.199522,   0.103862, 
19329,  -0.028956,  -8.030247,  -5.571715,  74.674016,  -0.824686,   0.722346,   0.271760,   0.518119,   0.725377, -79.500000, -252.000000,  91.500000,   0.154674, -124.861536,  26.001714,   0.450669,  -0.863835,  -0.198804,   0.105280, 
19330,  -0.013432,  -8.157662,  -5.480801,  75.052136,  -0.881570,   0.786421,   0.279144,   0.534772,   0.712849, -76.500000, -247.500000,  87.000000,   0.166525, -124.106920,  26.004784,   0.456323,  -0.860852,  -0.198082,   0.106688, 
19331,  -0.027570,  -8.248513,  -5.461493,  74.811760,  -0.780248,   0.776870,   0.288539,   0.542191,   0.703380, -72.000000, -246.000000,  84.000000,   0.177996, -123.356392,  26.008364,   0.461928,  -0.857848,  -0.197359,   0.108083, 
19332,  -0.041412,  -8.360431,  -5.412951,  73.931288,  -0.752289,   0.822786,   0.286529,   0.551425,   0.700321, -73.500000, -243.000000,  82.500000,   0.190749, -122.616136,  26.011178,   0.467437,  -0.854856,  -0.196626,   0.109462, 
19333,  -0.004747,  -8.404424,  -5.246020,  73.068480,  -0.785140,   0.774985,   0.281074,   0.552151,   0.691894, -76.500000, -243.000000,  79.500000,   0.199602, -121.881880,  26.014204,   0.472884,  -0.851842,  -0.195906,   0.110798, 
19334,  -0.021244,  -8.395292,  -5.071841,  72.503424,  -0.804556,   0.782920,   0.282492,   0.567086,   0.684551, -76.500000, -238.500000,  76.500000,   0.210957, -121.153208,  26.017392,   0.478271,  -0.848829,  -0.195175,   0.112139, 
19335,  -0.001611,  -8.416344,  -4.881283,  72.888360,  -0.767032,   0.755916,   0.284797,   0.591707,   0.673826, -76.500000, -231.000000,  72.000000,   0.220177, -120.421488,  26.021138,   0.483658,  -0.845753,  -0.194442,   0.113466, 
19336,  -0.032085,  -8.465714,  -4.747248,  73.960848,  -0.847133,   0.844635,   0.292166,   0.605554,   0.651646, -73.500000, -228.000000,  64.500000,   0.232753, -119.678552,  26.025426,   0.489110,  -0.842613,  -0.193682,   0.114836, 
19337,  -0.031361,  -8.512416,  -4.633111,  74.768856,  -0.771078,   0.811373,   0.291961,   0.599126,   0.636878, -73.500000, -231.000000,  60.000000,   0.247031, -118.925552,  26.029744,   0.494602,  -0.839378,  -0.192891,   0.116228, 
19338,  -0.014577,  -8.592808,  -4.515860,  75.838760,  -0.835770,   0.819108,   0.297774,   0.602836,   0.645883, -70.500000, -229.500000,  63.000000,   0.259451, -118.163704,  26.033706,   0.500155,  -0.836090,  -0.192091,   0.117618, 
19339,  -0.022055,  -8.655777,  -4.463762,  76.734872,  -0.801740,   0.919515,   0.311313,   0.624827,   0.633285, -64.500000, -223.500000,  58.500000,   0.270961, -117.394888,  26.038198,   0.505720,  -0.832705,  -0.191276,   0.119005, 
19340,  -0.032297,  -8.743375,  -4.296291,  77.472216,  -0.839478,   0.829301,   0.303132,   0.625916,   0.620644, -69.000000, -223.500000,  54.000000,   0.284814, -116.613928,  26.042834,   0.511362,  -0.829257,  -0.190435,   0.120429, 
19341,  -0.029313,  -8.829304,  -4.242622,  78.142368,  -0.894131,   0.881162,   0.294797,   0.628997,   0.622194, -73.500000, -222.000000,  54.000000,   0.295972, -115.828520,  26.047912,   0.517003,  -0.825725,  -0.189589,   0.121833, 
19342,  -0.050297,  -8.896976,  -4.138104,  78.326904,  -0.857056,   0.869348,   0.299283,   0.645199,   0.609989, -72.000000, -217.500000,  49.500000,   0.308777, -115.043288,  26.053186,   0.522625,  -0.822172,  -0.188730,   0.123246, 
19343,  -0.022647,  -9.010491,  -4.062696,  78.168720,  -0.850195,   0.786500,   0.291665,   0.657151,   0.612694, -76.500000, -213.000000,  49.500000,   0.318836, -114.258496,  26.058800,   0.528219,  -0.818573,  -0.187874,   0.124633, 
19344,  -0.068359,  -9.068424,  -3.986748,  77.617672,  -0.792239,   0.854951,   0.299065,   0.676610,   0.609819, -73.500000, -207.000000,  48.000000,   0.331405, -113.482544,  26.064144,   0.533722,  -0.814980,  -0.187005,   0.126016, 
19345,  -0.039189,  -9.126066,  -3.842766,  76.872480,  -0.811875,   0.738090,   0.306450,   0.693263,   0.597291, -70.500000, -202.500000,  43.500000,   0.339959, -112.714112,  26.069568,   0.539158,  -0.811388,  -0.186155,   0.127354, 
19346,  -0.065547,  -9.138761,  -3.738644,  76.167328,  -0.796890,   0.838891,   0.303348,   0.686384,   0.582847, -72.000000, -205.500000,  39.000000,   0.350247, -111.954232,  26.075048,   0.544499,  -0.807790,  -0.185295,   0.128683, 
19347,  -0.028806,  -9.182215,  -3.542924,  75.738232,  -0.880322,   0.759190,   0.305466,   0.707384,   0.567007, -72.000000, -199.500000,  33.000000,   0.359216, -111.195528,  26.080970,   0.549821,  -0.804178,  -0.184439,   0.130000, 
19348,  -0.052349,  -9.217825,  -3.409156,  75.824680,  -0.808946,   0.839737,   0.307226,   0.723949,   0.550590, -72.000000, -195.000000,  27.000000,   0.370568, -110.435192,  26.087126,   0.555111,  -0.800503,  -0.183558,   0.131328, 
19349,  -0.061975,  -9.245179,  -3.295935,  75.979464,  -0.800796,   0.763260,   0.304857,   0.728747,   0.546954, -73.500000, -193.500000,  25.500000,   0.382173, -109.673976,  26.093634,   0.560400,  -0.796815,  -0.182673,   0.132659, 
19350,  -0.030548,  -9.340045,  -3.194257,  76.210928,  -0.818489,   0.887337,   0.309173,   0.744134,   0.539287, -72.000000, -189.000000,  22.500000,   0.391052, -108.910280,  26.100186,   0.565666,  -0.793047,  -0.181783,   0.133965, 
19351,  -0.038248,  -9.371481,  -3.115254,  75.798576,  -0.844518,   0.830114,   0.314235,   0.733360,   0.527832, -69.000000, -193.500000,  19.500000,   0.400303, -108.154296,  26.107276,   0.570869,  -0.789308,  -0.180900,   0.135262, 
19352,  -0.051697,  -9.431347,  -2.988510,  75.274648,  -0.861311,   0.789233,   0.320390,   0.738698,   0.527761, -66.000000, -192.000000,  19.500000,   0.409773, -107.403160,  26.114528,   0.576000,  -0.785539,  -0.180010,   0.136545, 
19353,  -0.077582,  -9.515864,  -2.925022,  74.734328,  -0.788793,   0.810677,   0.317257,   0.766852,   0.518261, -69.000000, -183.000000,  15.000000,   0.419680, -106.660312,  26.121176,   0.581061,  -0.781796,  -0.179117,   0.137811, 
19354,  -0.045134,  -9.464915,  -2.747696,  73.969744,  -0.813544,   0.845329,   0.311804,   0.767578,   0.509834, -72.000000, -183.000000,  12.000000,   0.428324, -105.922904,  26.128156,   0.586053,  -0.778034,  -0.178228,   0.139054, 
19355,  -0.061026,  -9.540121,  -2.628652,  73.540296,  -0.830594,   0.796781,   0.313968,   0.756352,   0.498703, -70.500000, -187.500000,   9.000000,   0.436157, -105.189872,  26.135326,   0.591000,  -0.774271,  -0.177344,   0.140282, 
19356,  -0.058193,  -9.598830,  -2.523622,  73.171936,  -0.740802,   0.794318,   0.315899,   0.773731,   0.477748, -70.500000, -183.000000,   1.500000,   0.442934, -104.462432,  26.142588,   0.595881,  -0.770498,  -0.176463,   0.141487, 
19357,  -0.057465,  -9.670968,  -2.501240,  72.089632,  -0.774001,   0.773103,   0.308434,   0.783691,   0.466262, -75.000000, -180.000000,  -3.000000,   0.449003, -103.747624,  26.149492,   0.600659,  -0.766764,  -0.175592,   0.142662, 
19358,  -0.064282,  -9.741458,  -2.396289,  70.406664,  -0.770487,   0.702407,   0.300082,   0.783965,   0.458159, -79.500000, -180.000000,  -6.000000,   0.456486, -103.051488,  26.156722,   0.605284,  -0.763097,  -0.174730,   0.143814, 
19359,  -0.073123,  -9.752816,  -2.306658,  68.551824,  -0.757027,   0.760539,   0.308184,   0.809489,   0.446786, -76.500000, -172.500000, -10.500000,   0.462938, -102.375248,  26.164248,   0.609759,  -0.759511,  -0.173894,   0.144926, 
19360,  -0.070448,  -9.789522,  -2.276564,  66.552108,  -0.645823,   0.731782,   0.319760,   0.808489,   0.435838, -70.500000, -174.000000, -13.500000,   0.469351, -101.724992,  26.171206,   0.614037,  -0.756032,  -0.173079,   0.145989, 
19361,  -0.064146,  -9.923182,  -2.231166,  63.674584,  -0.728325,   0.698617,   0.322828,   0.809755,   0.430977, -69.000000, -174.000000, -15.000000,   0.473928, -101.105504,  26.177948,   0.618106,  -0.752704,  -0.172309,   0.146991, 
19362,  -0.072862,  -9.910314,  -2.141517,  60.592004,  -0.712727,   0.621420,   0.311562,   0.806771,   0.413545, -75.000000, -175.500000, -21.000000,   0.475755, -100.520016,  26.184716,   0.621925,  -0.749520,  -0.171588,   0.147916, 
19363,  -0.076337,  -9.933497,  -2.059526,  57.158728,  -0.544748,   0.612691,   0.312075,   0.809215,   0.399932, -75.000000, -175.500000, -25.500000,   0.480344, -99.966552,  26.190976,   0.625530,  -0.746513,  -0.170889,   0.148809, 
19364,  -0.051612,  -9.916100,  -1.937166,  54.058316,  -0.591252,   0.560304,   0.325272,   0.829577,   0.396409, -69.000000, -169.500000, -27.000000,   0.478283, -99.446120,  26.197090,   0.628904,  -0.743646,  -0.170261,   0.149602, 
19365,  -0.076018,  -9.824791,  -1.730138,  51.671748,  -0.523661,   0.526511,   0.331426,   0.834916,   0.396338, -66.000000, -168.000000, -27.000000,   0.483507, -98.942784,  26.203030,   0.632147,  -0.740873,  -0.169612,   0.150415, 
19366,  -0.039919,  -9.772655,  -1.563997,  50.305732,  -0.582647,   0.553929,   0.335351,   0.840254,   0.368789, -64.500000, -168.000000, -36.000000,   0.485374, -98.448056,  26.208830,   0.635340,  -0.738143,  -0.168991,   0.151193, 
19367,  -0.096690,  -9.769072,  -1.459958,  49.336784,  -0.438084,   0.554526,   0.327357,   0.844964,   0.361264, -69.000000, -166.500000, -39.000000,   0.492224, -97.961008,  26.214654,   0.638443,  -0.735424,  -0.168343,   0.151983, 
19368,  -0.083221,  -9.750980,  -1.366600,  48.907500,  -0.446503,   0.453915,   0.326657,   0.838900,   0.369761, -69.000000, -168.000000, -36.000000,   0.496737, -97.480592,  26.219990,   0.641507,  -0.732739,  -0.167713,   0.152747, 
19369,  -0.063366,  -9.790789,  -1.294479,  48.314692,  -0.462566,   0.525425,   0.330955,   0.851480,   0.352442, -67.500000, -165.000000, -42.000000,   0.501780, -97.002504,  26.225468,   0.644553,  -0.730066,  -0.167083,   0.153510, 
19370,  -0.086530,  -9.844517,  -1.268721,  47.276040,  -0.424736,   0.497250,   0.328946,   0.860714,   0.349384, -69.000000, -162.000000, -43.500000,   0.506411, -96.540336,  26.230940,   0.647468,  -0.727447,  -0.166469,   0.154241, 
19371,  -0.079773,  -9.824681,  -1.145903,  46.297272,  -0.413819,   0.451849,   0.323321,   0.860626,   0.345495, -72.000000, -162.000000, -45.000000,   0.511309, -96.085752,  26.236060,   0.650334,  -0.724872,  -0.165860,   0.154960, 
19372,  -0.075327,  -9.855507,  -1.102809,  45.250044,  -0.366852,   0.467256,   0.326406,   0.864698,   0.350285, -70.500000, -160.500000, -43.500000,   0.513639, -95.644184,  26.240810,   0.653123,  -0.722368,  -0.165281,   0.155642, 
19373,  -0.081520,  -9.820779,  -1.016077,  44.184948,  -0.400178,   0.428821,   0.320252,   0.859360,   0.350356, -73.500000, -162.000000, -43.500000,   0.519309, -95.211384,  26.245940,   0.655822,  -0.719886,  -0.164689,   0.156328, 
19374,  -0.074160,  -9.811559,  -0.906835,  43.549564,  -0.380604,   0.491793,   0.325609,   0.882440,   0.325117, -72.000000, -156.000000, -52.500000,   0.522040, -94.782504,  26.250950,   0.658499,  -0.717421,  -0.164118,   0.156988, 
19375,  -0.076457,  -9.785564,  -0.792539,  42.943828,  -0.469340,   0.455501,   0.340442,   0.886327,   0.314422, -64.500000, -156.000000, -55.500000,   0.525627, -94.356640,  26.256318,   0.661156,  -0.714974,  -0.163548,   0.157652, 
19376,  -0.099395,  -9.825890,  -0.771886,  42.373416,  -0.369642,   0.365893,   0.336655,   0.876190,   0.318128, -66.000000, -159.000000, -54.000000,   0.529682, -93.940384,  26.261826,   0.663731,  -0.712561,  -0.162984,   0.158302, 
19377,  -0.046738,  -9.788579,  -0.648582,  41.814808,  -0.403658,   0.421022,   0.337698,   0.883883,   0.300556, -66.000000, -157.500000, -60.000000,   0.531779, -93.526416,  26.266974,   0.666286,  -0.710150,  -0.162430,   0.158931, 
19378,  -0.093013,  -9.805032,  -0.562315,  41.531324,  -0.411835,   0.434193,   0.341296,   0.890399,   0.291734, -64.500000, -156.000000, -63.000000,   0.533762, -93.111976,  26.272224,   0.668844,  -0.707735,  -0.161876,   0.159562, 
19379,  -0.103917,  -9.773973,  -0.468539,  41.685568,  -0.347934,   0.436061,   0.346376,   0.882431,   0.289931, -61.500000, -159.000000, -63.000000,   0.541065, -92.694616,  26.277668,   0.671404,  -0.705301,  -0.161286,   0.160228, 
19380,  -0.079371,  -9.748796,  -0.326700,  42.055668,  -0.359678,   0.432193,   0.344536,   0.892480,   0.282335, -63.000000, -156.000000, -66.000000,   0.544744, -92.271168,  26.282918,   0.673985,  -0.702804,  -0.160701,   0.160874, 
19381,  -0.086597,  -9.741362,  -0.249109,  42.791104,  -0.493271,   0.345090,   0.330918,   0.897101,   0.270920, -70.500000, -154.500000, -70.500000,   0.549157, -91.837896,  26.289078,   0.676623,  -0.700250,  -0.160103,   0.161544, 
19382,  -0.105757,  -9.750721,  -0.188209,  43.420744,  -0.389433,   0.446702,   0.339783,   0.899270,   0.265411, -66.000000, -154.500000, -72.000000,   0.556027, -91.399248,  26.294980,   0.679291,  -0.697666,  -0.159481,   0.162235, 
19383,  -0.086326,  -9.774718,  -0.106966,  43.944252,  -0.416152,   0.482938,   0.347167,   0.915923,   0.252883, -63.000000, -150.000000, -76.500000,   0.561696, -90.955448,  26.300692,   0.681961,  -0.695019,  -0.158850,   0.162917, 
19384,  -0.087946,  -9.781191,  -0.048818,  44.510820,  -0.445392,   0.431608,   0.338115,   0.910133,   0.253277, -67.500000, -151.500000, -76.500000,   0.567770, -90.507104,  26.306988,   0.684657,  -0.692345,  -0.158213,   0.163612, 
19385,  -0.094247,  -9.772263,   0.001566,  44.921272,  -0.426529,   0.439366,   0.335575,   0.914117,   0.254179, -69.000000, -150.000000, -76.500000,   0.572239, -90.057568,  26.313188,   0.687362,  -0.689661,  -0.157583,   0.164298, 
19386,  -0.106569,  -9.774900,   0.105669,  45.284552,  -0.349092,   0.476655,   0.346216,   0.935657,   0.241904, -64.500000, -144.000000, -81.000000,   0.579482, -89.601480,  26.319492,   0.690074,  -0.686913,  -0.156920,   0.165003, 
19387,  -0.093983,  -9.790948,   0.162605,  45.654216,  -0.420582,   0.385658,   0.342943,   0.927964,   0.231998, -66.000000, -147.000000, -84.000000,   0.584250, -89.143192,  26.325546,   0.692798,  -0.684144,  -0.156265,   0.165694, 
19388,  -0.119192,  -9.773353,   0.253118,  45.988044,  -0.431183,   0.395916,   0.339312,   0.915835,   0.221515, -67.500000, -151.500000, -87.000000,   0.590877, -88.680616,  26.331644,   0.695545,  -0.681352,  -0.155593,   0.166402, 
19389,  -0.111915,  -9.759805,   0.401706,  46.668160,  -0.533138,   0.479924,   0.351979,   0.930947,   0.221951, -61.500000, -147.000000, -87.000000,   0.598207, -88.205968,  26.338604,   0.698334,  -0.678459,  -0.154898,   0.167129, 
19390,  -0.096001,  -9.774957,   0.429748,  47.413216,  -0.451866,   0.472170,   0.351263,   0.922076,   0.220796, -61.500000, -150.000000, -87.000000,   0.603751, -87.727456,  26.345330,   0.701141,  -0.675534,  -0.154204,   0.167847, 
19391,  -0.100160,  -9.777359,   0.494634,  47.905528,  -0.457034,   0.456227,   0.339638,   0.914657,   0.202787, -67.500000, -153.000000, -93.000000,   0.609886, -87.245632,  26.352496,   0.703967,  -0.672589,  -0.153503,   0.168577, 
19392,  -0.087032,  -9.781741,   0.563188,  48.117640,  -0.408523,   0.567729,   0.346680,   0.929681,   0.199334, -64.500000, -148.500000, -94.500000,   0.612821, -86.763808,  26.359322,   0.706765,  -0.669610,  -0.152813,   0.169278, 
19393,  -0.095465,  -9.814335,   0.595365,  48.103792,  -0.464994,   0.535630,   0.344157,   0.936472,   0.209889, -66.000000, -145.500000, -91.500000,   0.616093, -86.286056,  26.366240,   0.709535,  -0.666652,  -0.152125,   0.169975, 
19394,  -0.098993,  -9.815548,   0.654551,  47.936556,  -0.497435,   0.494531,   0.335617,   0.933125,   0.196670, -70.500000, -147.000000, -96.000000,   0.620573, -85.812048,  26.373498,   0.712281,  -0.663718,  -0.151437,   0.170676, 
19395,  -0.098335,  -9.880678,   0.686053,  47.225700,  -0.494693,   0.517693,   0.342814,   0.946157,   0.179027, -67.500000, -144.000000, -102.000000,   0.624314, -85.347160,  26.380570,   0.714942,  -0.660810,  -0.150759,   0.171353, 
19396,  -0.108538,  -9.867633,   0.719953,  46.177152,  -0.404697,   0.441985,   0.343515,   0.952222,   0.170530, -67.500000, -142.500000, -105.000000,   0.625731, -84.896864,  26.387424,   0.717520,  -0.657988,  -0.150115,   0.171994, 
19397,  -0.097567,  -9.827868,   0.816193,  44.975004,  -0.394979,   0.448254,   0.343328,   0.948601,   0.165415, -67.500000, -144.000000, -106.500000,   0.626893, -84.457560,  26.394140,   0.720035,  -0.655234,  -0.149487,   0.172620, 
19398,  -0.095924,  -9.825471,   0.900076,  43.919024,  -0.372936,   0.417673,   0.344370,   0.956294,   0.147842, -67.500000, -142.500000, -112.500000,   0.629170, -84.027600,  26.400512,   0.722469,  -0.652516,  -0.148859,   0.173231, 
19399,  -0.093292,  -9.789323,   0.980448,  43.151284,  -0.335528,   0.429220,   0.358843,   0.955745,   0.136570, -60.000000, -144.000000, -115.500000,   0.631791, -83.604520,  26.406400,   0.724857,  -0.649838,  -0.148235,   0.173831, 
19400,  -0.091101,  -9.764411,   1.102580,  42.545880,  -0.298902,   0.360346,   0.357068,   0.936374,   0.143335, -60.000000, -150.000000, -112.500000,   0.633422, -83.183920,  26.412574,   0.727233,  -0.647173,  -0.147621,   0.174424, 
19401,  -0.100983,  -9.782185,   1.148527,  42.012548,  -0.386491,   0.387727,   0.352143,   0.942350,   0.130948, -63.000000, -148.500000, -117.000000,   0.634401, -82.769312,  26.418814,   0.729559,  -0.644531,  -0.147018,   0.175002, 
19402,  -0.086263,  -9.792970,   1.195843,  41.445484,  -0.402568,   0.468224,   0.356646,   0.961358,   0.128396, -61.500000, -142.500000, -118.500000,   0.634631, -82.363608,  26.425134,   0.731820,  -0.641931,  -0.146430,   0.175561, 
19403,  -0.081096,  -9.807239,   1.230691,  40.433280,  -0.302744,   0.397926,   0.353560,   0.957286,   0.123605, -63.000000, -144.000000, -120.000000,   0.635181, -81.970048,  26.431346,   0.734012,  -0.639409,  -0.145858,   0.176107, 
19404,  -0.116007,  -9.785933,   1.290642,  39.118448,  -0.397475,   0.416570,   0.348123,   0.960818,   0.124831, -66.000000, -142.500000, -120.000000,   0.637453, -81.589632,  26.437496,   0.736129,  -0.636973,  -0.145294,   0.176644, 
19405,  -0.110187,  -9.731784,   1.394001,  38.114128,  -0.368840,   0.345094,   0.352813,   0.983447,   0.127394, -64.500000, -135.000000, -120.000000,   0.639867, -81.217400,  26.443298,   0.738173,  -0.634567,  -0.144735,   0.177164, 
19406,  -0.113663,  -9.743766,   1.489574,  37.325672,  -0.206845,   0.356692,   0.356208,   0.983536,   0.103805, -63.000000, -136.500000, -127.500000,   0.642980, -80.850248,  26.448698,   0.740186,  -0.632193,  -0.144175,   0.177678, 
19407,  -0.106031,  -9.714384,   1.560470,  36.714824,  -0.330200,   0.312959,   0.354228,   0.957737,   0.095803, -63.000000, -145.500000, -129.000000,   0.646024, -80.488448,  26.454070,   0.742170,  -0.629855,  -0.143624,   0.178185, 
19408,  -0.111465,  -9.703765,   1.582273,  36.259972,  -0.293327,   0.360821,   0.351501,   0.958100,   0.091589, -64.500000, -145.500000, -130.500000,   0.648136, -80.132856,  26.459762,   0.744119,  -0.627552,  -0.143090,   0.178680, 
19409,  -0.109855,  -9.701492,   1.627729,  35.573024,  -0.291829,   0.344578,   0.359244,   0.979189,   0.079639, -61.500000, -139.500000, -135.000000,   0.649938, -79.784704,  26.465608,   0.746000,  -0.625276,  -0.142564,   0.179160, 
19410,  -0.114966,  -9.657973,   1.751655,  34.843184,  -0.290367,   0.301751,   0.353790,   0.979915,   0.071212, -64.500000, -139.500000, -138.000000,   0.651667, -79.439848,  26.471362,   0.747864,  -0.623021,  -0.142044,   0.179634, 
19411,  -0.111531,  -9.617960,   1.835512,  34.603192,  -0.236184,   0.352288,   0.350721,   0.978649,   0.076073, -66.000000, -139.500000, -136.500000,   0.654572, -79.095528,  26.476214,   0.749725,  -0.620773,  -0.141511,   0.180108, 
19412,  -0.089850,  -9.561651,   2.014531,  34.800172,  -0.280843,   0.405882,   0.356826,   0.975568,   0.047045, -63.000000, -142.500000, -145.500000,   0.657654, -78.739952,  26.481914,   0.751645,  -0.618449,  -0.140964,   0.180603, 
19413,  -0.069635,  -9.538215,   2.079026,  35.658488,  -0.327429,   0.379698,   0.352276,   0.988786,   0.044888, -66.000000, -138.000000, -147.000000,   0.660734, -78.371760,  26.487852,   0.753605,  -0.616020,  -0.140393,   0.181108, 
19414,  -0.114011,  -9.477905,   2.156638,  36.740572,  -0.321052,   0.374326,   0.347230,   1.002367,   0.065996, -69.000000, -132.000000, -141.000000,   0.667507, -77.992032,  26.494052,   0.755620,  -0.613520,  -0.139780,   0.181649, 
19415,  -0.080111,  -9.474024,   2.220631,  37.779832,  -0.296608,   0.403615,   0.346138,   0.986254,   0.054611, -69.000000, -138.000000, -144.000000,   0.670095, -77.601592,  26.500254,   0.757699,  -0.610943,  -0.139177,   0.182180, 
19416,  -0.113217,  -9.466878,   2.262291,  39.075612,  -0.388526,   0.407554,   0.345405,   0.974576,   0.043804, -69.000000, -142.500000, -147.000000,   0.675813, -77.200120,  26.506752,   0.759821,  -0.608288,  -0.138535,   0.182741, 
19417,  -0.115870,  -9.485252,   2.298849,  39.917492,  -0.354832,   0.417427,   0.352072,   0.982358,   0.030121, -66.000000, -141.000000, -151.500000,   0.681394, -76.794056,  26.513624,   0.761945,  -0.605585,  -0.137884,   0.183304, 
19418,  -0.095178,  -9.509632,   2.334987,  40.526908,  -0.382889,   0.423642,   0.355638,   0.983261,   0.001994, -64.500000, -142.500000, -160.500000,   0.684956, -76.384712,  26.520420,   0.764089,  -0.602858,  -0.137241,   0.183859, 
19419,  -0.118669,  -9.510178,   2.361369,  40.767868,  -0.339214,   0.374855,   0.362151,   0.993035,   0.002501, -61.500000, -139.500000, -160.500000,   0.687205, -75.977616,  26.526848,   0.766224,  -0.600144,  -0.136608,   0.184403, 
19420,  -0.110543,  -9.526243,   2.402730,  40.476244,  -0.302929,   0.380990,   0.359098,   0.994576,   0.017015, -63.000000, -138.000000, -156.000000,   0.689122, -75.575832,  26.532860,   0.768302,  -0.597443,  -0.135977,   0.184929, 
19421,  -0.110465,  -9.502625,   2.412779,  39.960924,  -0.301462,   0.436260,   0.350217,   0.989600,   0.012872, -67.500000, -139.500000, -157.500000,   0.691213, -75.184104,  26.539124,   0.770324,  -0.594807,  -0.135362,   0.185445, 
19422,  -0.118089,  -9.499829,   2.514822,  39.307212,  -0.406618,   0.453299,   0.353082,   0.984439,  -0.006756, -66.000000, -142.500000, -163.500000,   0.694848, -74.794624,  26.546264,   0.772331,  -0.592186,  -0.134744,   0.185972, 
19423,  -0.109833,  -9.479282,   2.569783,  38.784164,  -0.343611,   0.361627,   0.344371,   0.980278,  -0.015436, -70.500000, -144.000000, -166.500000,   0.697238, -74.412584,  26.552724,   0.774292,  -0.589608,  -0.134141,   0.186477, 
19424,  -0.111156,  -9.482868,   2.593968,  38.217672,  -0.315605,   0.364586,   0.353953,   0.991318,  -0.019791, -66.000000, -141.000000, -168.000000,   0.697732, -74.037992,  26.558842,   0.776196,  -0.587061,  -0.133557,   0.186957, 
19425,  -0.115574,  -9.440491,   2.694882,  37.480120,  -0.225162,   0.323256,   0.362306,   0.991043,  -0.011688, -61.500000, -141.000000, -165.000000,   0.698316, -73.668696,  26.564710,   0.778073,  -0.584550,  -0.132980,   0.187429, 
19426,  -0.103886,  -9.371085,   2.844918,  37.005920,  -0.410700,   0.358251,   0.356868,   0.994576,  -0.010462, -64.500000, -139.500000, -165.000000,   0.698892, -73.296040,  26.570848,   0.779967,  -0.582017,  -0.132398,   0.187907, 
19427,  -0.100396,  -9.330460,   2.916972,  37.221436,  -0.322132,   0.379604,   0.353391,   0.980455,  -0.035136, -66.000000, -145.500000, -172.500000,   0.700947, -72.918344,  26.577472,   0.781867,  -0.579437,  -0.131798,   0.188398, 
19428,  -0.094792,  -9.294595,   3.002546,  37.885308,  -0.252608,   0.357209,   0.359513,   0.980180,  -0.054511, -63.000000, -147.000000, -178.500000,   0.702665, -72.532880,  26.583784,   0.783793,  -0.576794,  -0.131182,   0.188890, 
19429,  -0.130737,  -9.261509,   3.084399,  38.577592,  -0.396659,   0.332299,   0.366742,   0.998825,  -0.052849, -60.000000, -141.000000, -178.500000,   0.707504, -72.137192,  26.590592,   0.785765,  -0.574086,  -0.130530,   0.189413, 
19430,  -0.118767,  -9.285291,   3.136145,  39.159492,  -0.302800,   0.393562,   0.363127,   0.989503,  -0.053680, -61.500000, -144.000000, -178.500000,   0.710646, -71.738832,  26.597668,   0.787752,  -0.571357,  -0.129887,   0.189933, 
19431,  -0.099309,  -9.263548,   3.158403,  39.754148,  -0.381375,   0.371641,   0.363298,   0.990317,  -0.058218, -61.500000, -144.000000, -180.000000,   0.711951, -71.338136,  26.605048,   0.789721,  -0.568585,  -0.129247,   0.190441, 
19432,  -0.101379,  -9.289637,   3.174567,  39.937876,  -0.320324,   0.409562,   0.367752,   1.000906,  -0.089726, -60.000000, -142.500000, -190.500000,   0.712193, -70.940608,  26.611766,   0.791674,  -0.565833,  -0.128617,   0.190935, 
19433,  -0.119569,  -9.287256,   3.240859,  39.745780,  -0.354534,   0.398135,   0.367564,   0.997285,  -0.094842, -60.000000, -144.000000, -192.000000,   0.714012, -70.545464,  26.618808,   0.793613,  -0.563099,  -0.127981,   0.191437, 
19434,  -0.125477,  -9.235608,   3.267276,  39.540600,  -0.367194,   0.342465,   0.358341,   0.990680,  -0.089910, -64.500000, -145.500000, -190.500000,   0.716794, -70.155952,  26.625468,   0.795511,  -0.560397,  -0.127343,   0.191931, 
19435,  -0.110724,  -9.224263,   3.348378,  39.187840,  -0.335621,   0.366215,   0.358512,   0.991495,  -0.094447, -64.500000, -145.500000, -192.000000,   0.716565, -69.767632,  26.632102,   0.797386,  -0.557685,  -0.126725,   0.192405, 
19436,  -0.120026,  -9.187060,   3.417907,  38.769692,  -0.365502,   0.326266,   0.358341,   0.990680,  -0.089910, -64.500000, -145.500000, -190.500000,   0.717201, -69.383632,  26.638848,   0.799240,  -0.555004,  -0.126108,   0.192879, 
19437,  -0.115790,  -9.201361,   3.437470,  38.371696,  -0.369286,   0.374032,   0.361940,   0.997196,  -0.098731, -63.000000, -144.000000, -193.500000,   0.717086, -69.006640,  26.645376,   0.801060,  -0.552371,  -0.125506,   0.193340, 
19438,  -0.104968,  -9.176804,   3.519273,  37.563356,  -0.394346,   0.327936,   0.364633,   0.991220,  -0.113823, -61.500000, -147.000000, -198.000000,   0.716568, -68.636928,  26.652246,   0.802822,  -0.549772,  -0.124918,   0.193788, 
19439,  -0.117898,  -9.114217,   3.611023,  37.126592,  -0.366533,   0.351662,   0.367874,   0.993301,  -0.123222, -60.000000, -147.000000, -201.000000,   0.718488, -68.267288,  26.659126,   0.804572,  -0.547172,  -0.124310,   0.194246, 
19440,  -0.108833,  -9.071497,   3.674595,  36.915232,  -0.313497,   0.384121,   0.365692,   1.001720,  -0.121743, -61.500000, -144.000000, -201.000000,   0.720484, -67.895944,  26.665662,   0.806330,  -0.544560,  -0.123698,   0.194704, 
19441,  -0.124043,  -9.057652,   3.712523,  37.032380,  -0.339588,   0.359806,   0.357886,   1.010051,  -0.124153, -66.000000, -141.000000, -202.500000,   0.721290, -67.527632,  26.672196,   0.808076,  -0.541967,  -0.123098,   0.195153, 
19442,  -0.109184,  -9.008749,   3.828864,  37.236288,  -0.283097,   0.287630,   0.360035,   0.996019,  -0.144937, -64.500000, -147.000000, -208.500000,   0.721911, -67.153424,  26.678750,   0.809820,  -0.539313,  -0.122485,   0.195601, 
19443,  -0.131075,  -8.988823,   3.894289,  37.487648,  -0.331936,   0.321442,   0.368541,   0.993752,  -0.151024, -60.000000, -148.500000, -210.000000,   0.724302, -66.773956,  26.685348,   0.811583,  -0.536623,  -0.121850,   0.196063, 
19444,  -0.126417,  -9.016096,   3.862829,  37.335172,  -0.314833,   0.311363,   0.367265,   1.014664,  -0.143275, -61.500000, -141.000000, -208.500000,   0.725379, -66.403456,  26.691870,   0.813307,  -0.533994,  -0.121239,   0.196508, 
19445,  -0.127539,  -8.946998,   3.957491,  36.877696,  -0.348049,   0.375357,   0.363633,   1.002535,  -0.153759, -63.000000, -145.500000, -211.500000,   0.727554, -66.036156,  26.698264,   0.815009,  -0.531387,  -0.120624,   0.196953, 
19446,  -0.128172,  -8.955359,   3.970398,  36.503332,  -0.305254,   0.263690,   0.363446,   0.998914,  -0.158874, -63.000000, -147.000000, -213.000000,   0.729806, -65.675004,  26.705244,   0.816655,  -0.528805,  -0.120017,   0.197390, 
19447,  -0.116400,  -8.958350,   4.000648,  35.813828,  -0.256828,   0.339149,   0.367231,   1.009051,  -0.162580, -61.500000, -144.000000, -214.500000,   0.728207, -65.323768,  26.711448,   0.818261,  -0.526289,  -0.119451,   0.197794, 
19448,  -0.129057,  -8.935587,   4.074275,  34.953956,  -0.277657,   0.324471,   0.372807,   1.000720,  -0.187648, -58.500000, -148.500000, -222.000000,   0.729428, -64.981032,  26.717472,   0.819825,  -0.523839,  -0.118879,   0.198200, 
19449,  -0.110147,  -8.947907,   4.090407,  34.053120,  -0.288415,   0.327894,   0.373524,   1.009591,  -0.186493, -58.500000, -145.500000, -222.000000,   0.728783, -64.652800,  26.723492,   0.821321,  -0.521486,  -0.118344,   0.198582, 
19450,  -0.126404,  -8.893148,   4.126782,  33.014846,  -0.304816,   0.325835,   0.370797,   1.009954,  -0.190707, -60.000000, -145.500000, -223.500000,   0.730000, -64.333456,  26.729598,   0.822749,  -0.519185,  -0.117807,   0.198958, 
19451,  -0.097650,  -8.769924,   4.320785,  32.379020,  -0.249114,   0.301447,   0.366620,   0.989768,  -0.206883, -61.500000, -153.000000, -228.000000,   0.728543, -64.006080,  26.736128,   0.824215,  -0.516821,  -0.117278,   0.199333, 
19452,  -0.140637,  -8.777946,   4.350230,  32.358688,  -0.279736,   0.295844,   0.372586,   0.991486,  -0.212068, -58.500000, -153.000000, -229.500000,   0.731569, -63.678008,  26.742458,   0.825679,  -0.514459,  -0.116714,   0.199728, 
19453,  -0.129071,  -8.743372,   4.410864,  32.619544,  -0.240758,   0.304245,   0.376373,   1.001623,  -0.215775, -57.000000, -150.000000, -231.000000,   0.732721, -63.348936,  26.748064,   0.827152,  -0.512088,  -0.116158,   0.200110, 
19454,  -0.127913,  -8.732190,   4.433307,  32.215000,  -0.337754,   0.289362,   0.370389,   0.997099,  -0.220242, -60.000000, -151.500000, -232.500000,   0.735302, -63.023740,  26.754484,   0.828581,  -0.509732,  -0.115598,   0.200495, 
19455,  -0.135247,  -8.766420,   4.425557,  31.803642,  -0.247689,   0.321243,   0.370902,   0.999542,  -0.233854, -60.000000, -151.500000, -237.000000,   0.735445, -62.711632,  26.760568,   0.829949,  -0.507464,  -0.115077,   0.200852, 
19456,  -0.130379,  -8.694473,   4.493511,  31.322812,  -0.255904,   0.237473,   0.380500,   1.013389,  -0.228556, -55.500000, -147.000000, -235.500000,   0.736988, -62.401504,  26.766490,   0.831308,  -0.505213,  -0.114548,   0.201213, 
19457,  -0.138859,  -8.661457,   4.553076,  31.056904,  -0.210382,   0.322382,   0.379800,   1.007324,  -0.220059, -55.500000, -148.500000, -232.500000,   0.740001, -62.092580,  26.772392,   0.832659,  -0.502973,  -0.114010,   0.201578, 
19458,  -0.125159,  -8.645039,   4.591552,  30.773082,  -0.263344,   0.274800,   0.381793,   0.995284,  -0.226652, -54.000000, -153.000000, -234.000000,   0.742277, -61.787108,  26.777688,   0.833990,  -0.500753,  -0.113479,   0.201931, 
19459,  -0.110220,  -8.637451,   4.610553,  30.327124,  -0.209097,   0.244742,   0.384145,   0.987679,  -0.232669, -52.500000, -156.000000, -235.500000,   0.740688, -61.488368,  26.782944,   0.835276,  -0.498564,  -0.112985,   0.202255, 
19460,  -0.134278,  -8.607319,   4.665869,  29.751794,  -0.207805,   0.238427,   0.376152,   0.992389,  -0.240195, -57.000000, -154.500000, -238.500000,   0.741685, -61.193108,  26.788572,   0.836543,  -0.496404,  -0.112481,   0.202591, 
19461,  -0.104348,  -8.573846,   4.713328,  29.150370,  -0.232922,   0.274870,   0.373254,   0.991937,  -0.239871, -58.500000, -154.500000, -238.500000,   0.739295, -60.904768,  26.794026,   0.837785,  -0.494289,  -0.112012,   0.202903, 
19462,  -0.121899,  -8.502501,   4.836591,  29.055854,  -0.232533,   0.308647,   0.382444,   0.992929,  -0.264108, -54.000000, -156.000000, -246.000000,   0.739762, -60.609532,  26.799694,   0.839052,  -0.492129,  -0.111511,   0.203236, 
19463,  -0.116475,  -8.437651,   4.906316,  29.399554,  -0.224807,   0.234244,   0.380214,   0.992929,  -0.291586, -55.500000, -157.500000, -255.000000,   0.740225, -60.307476,  26.805466,   0.840335,  -0.489910,  -0.110996,   0.203574, 
19464,  -0.128823,  -8.431268,   4.996523,  30.130284,  -0.137351,   0.269957,   0.376958,   0.988042,  -0.291840, -57.000000, -159.000000, -255.000000,   0.744550, -59.994472,  26.811410,   0.841647,  -0.487610,  -0.110432,   0.203936, 
19465,  -0.116165,  -8.387066,   5.032058,  30.902270,  -0.228137,   0.259442,   0.386197,   0.997453,  -0.287119, -52.500000, -156.000000, -253.500000,   0.747280, -59.673480,  26.817248,   0.842995,  -0.485249,  -0.109864,   0.204299, 
19466,  -0.101432,  -8.341238,   5.143149,  31.760682,  -0.256666,   0.285798,   0.374622,   0.998453,  -0.276171, -58.500000, -154.500000, -250.500000,   0.747650, -59.339592,  26.823524,   0.844399,  -0.482788,  -0.109293,   0.204667, 
19467,  -0.120758,  -8.350069,   5.166605,  32.833928,  -0.277002,   0.271151,   0.369590,   0.974195,  -0.269659, -60.000000, -162.000000, -247.500000,   0.749680, -58.998752,  26.829684,   0.845825,  -0.480276,  -0.108695,   0.205047, 
19468,  -0.119337,  -8.301038,   5.173732,  33.667192,  -0.234037,   0.350718,   0.375711,   0.973921,  -0.289035, -57.000000, -163.500000, -253.500000,   0.751960, -58.652132,  26.835802,   0.847250,  -0.477708,  -0.108082,   0.205427, 
19469,  -0.116000,  -8.313545,   5.218010,  34.422348,  -0.289200,   0.340651,   0.371503,   0.988768,  -0.300266, -60.000000, -159.000000, -258.000000,   0.753593, -58.300012,  26.842290,   0.848697,  -0.475097,  -0.107465,   0.205812, 
19470,  -0.150041,  -8.270314,   5.241983,  34.954528,  -0.308056,   0.372288,   0.378016,   0.998542,  -0.299759, -57.000000, -156.000000, -258.000000,   0.756984, -57.944780,  26.848872,   0.850156,  -0.472466,  -0.106829,   0.206208, 
19471,  -0.121241,  -8.225603,   5.287081,  35.521284,  -0.318535,   0.317424,   0.377829,   0.994921,  -0.304875, -57.000000, -157.500000, -259.500000,   0.758388, -57.583700,  26.855650,   0.851634,  -0.469785,  -0.106197,   0.206601, 
19472,  -0.090956,  -8.574066,   4.802543,  35.289392,  -0.308719,   0.393370,   0.374026,   0.981977,  -0.310821, -58.500000, -162.000000, -261.000000,   0.752391, -57.264532,  26.862158,   0.852923,  -0.467389,  -0.105691,   0.206918, 
19473,  -0.189160,  -8.091819,   5.627190,  32.404766,  -0.239966,   0.362814,   0.359520,   0.976913,  -0.318853, -66.000000, -163.500000, -264.000000,   0.756286, -56.926380,  26.868564,   0.854280,  -0.464870,  -0.105076,   0.207292, 
19474,  -0.033868,  -8.120463,   5.439476,  34.499684,  -0.280345,   0.367769,   0.356964,   0.978091,  -0.327604, -67.500000, -163.500000, -267.000000,   0.751174, -56.572548,  26.875590,   0.855708,  -0.462217,  -0.104503,   0.207648, 
19475,  -0.117372,  -8.120213,   5.486066,  34.456856,  -0.271440,   0.350049,   0.372684,   0.991663,  -0.341682, -60.000000, -160.500000, -271.500000,   0.751474, -56.223032,  26.882100,   0.857112,  -0.459605,  -0.103894,   0.208018, 
19476,  -0.088305,  -8.099819,   5.578363,  34.851992,  -0.263564,   0.328434,   0.381737,   0.997453,  -0.342076, -55.500000, -159.000000, -271.500000,   0.749855, -55.868992,  26.888676,   0.858506,  -0.456939,  -0.103288,   0.208378, 
19477,  -0.155845,  -7.876585,   5.800503,  36.474076,  -0.356216,   0.335954,   0.377421,   0.982066,  -0.334410, -57.000000, -163.500000, -268.500000,   0.756637, -55.480124,  26.895702,   0.860028,  -0.454027,  -0.102556,   0.208806, 
19478,  -0.099072,  -7.767800,   5.965656,  39.290500,  -0.380511,   0.331737,   0.365967,   0.975461,  -0.356956, -63.000000, -166.500000, -276.000000,   0.759775, -55.050764,  26.903852,   0.861713,  -0.450804,  -0.101783,   0.209265, 
19479,  -0.148013,  -7.687580,   6.151249,  43.773324,  -0.355126,   0.355464,   0.365934,   0.969848,  -0.376261, -63.000000, -169.500000, -282.000000,   0.769235, -54.567588,  26.912560,   0.863579,  -0.447174,  -0.100862,   0.209794, 
19480,  -0.101565,  -7.685870,   6.084317,  47.645824,  -0.372232,   0.493553,   0.375549,   0.986501,  -0.361311, -58.500000, -163.500000, -277.500000,   0.774161, -54.050700,  26.921428,   0.865560,  -0.443272,  -0.099911,   0.210331, 
19481,  -0.147491,  -7.783482,   5.994924,  50.225728,  -0.477903,   0.512361,   0.378072,   0.979711,  -0.371864, -57.000000, -166.500000, -280.500000,   0.778781, -53.530696,  26.931074,   0.867552,  -0.439346,  -0.098959,   0.210876, 
19482,  -0.078432,  -7.811068,   5.991158,  51.852856,  -0.443956,   0.538625,   0.373895,   0.959525,  -0.388041, -58.500000, -174.000000, -285.000000,   0.775328, -53.006512,  26.940414,   0.869529,  -0.435353,  -0.098053,   0.211381, 
19483,  -0.112962,  -7.824545,   5.968399,  52.331480,  -0.569384,   0.580349,   0.374099,   0.965953,  -0.373273, -58.500000, -171.000000, -280.500000,   0.769981, -52.483592,  26.950592,   0.871492,  -0.431362,  -0.097167,   0.211884, 
19484,  -0.122195,  -7.835073,   5.966029,  52.040920,  -0.533431,   0.521701,   0.380783,   0.976541,  -0.377304, -55.500000, -168.000000, -282.000000,   0.769895, -51.973468,  26.960214,   0.873397,  -0.427476,  -0.096260,   0.212390, 
19485,  -0.106657,  -7.807836,   6.008327,  51.331804,  -0.559703,   0.476676,   0.383476,   0.970565,  -0.392395, -54.000000, -171.000000, -286.500000,   0.765022, -51.477060,  26.969708,   0.875214,  -0.423665,  -0.095410,   0.212856, 
19486,  -0.119199,  -7.717747,   6.104820,  50.444084,  -0.494259,   0.504806,   0.378177,   0.969299,  -0.415012, -57.000000, -172.500000, -294.000000,   0.762320, -50.983484,  26.979106,   0.877019,  -0.419880,  -0.094548,   0.213328, 
19487,  -0.144944,  -7.685006,   6.137698,  49.805896,  -0.485026,   0.476665,   0.380529,   0.961694,  -0.421029, -55.500000, -175.500000, -295.500000,   0.760953, -50.499132,  26.988284,   0.878777,  -0.416163,  -0.093690,   0.213793, 
19488,  -0.133722,  -7.668219,   6.195040,  48.813016,  -0.446202,   0.470285,   0.383223,   0.955718,  -0.436120, -54.000000, -178.500000, -300.000000,   0.760261, -50.028380,  26.996810,   0.880453,  -0.412536,  -0.092846,   0.214237, 
19489,  -0.101785,  -7.547332,   6.298114,  47.783560,  -0.432800,   0.501730,   0.383753,   0.960968,  -0.440080, -54.000000, -177.000000, -301.500000,   0.756933, -49.563724,  27.005428,   0.882109,  -0.408951,  -0.092033,   0.214667, 
19490,  -0.164665,  -7.333674,   6.539693,  48.117016,  -0.489077,   0.470559,   0.381367,   0.962960,  -0.453369, -55.500000, -177.000000, -306.000000,   0.761166, -49.072332,  27.014398,   0.883839,  -0.405168,  -0.091111,   0.215145, 
19491,  -0.106718,  -7.289502,   6.633992,  49.515904,  -0.492715,   0.388238,   0.375197,   0.954815,  -0.462951, -58.500000, -180.000000, -309.000000,   0.762343, -48.562968,  27.023632,   0.885603,  -0.401225,  -0.090176,   0.215621, 
19492,  -0.134838,  -7.332675,   6.572376,  50.384684,  -0.422998,   0.496715,   0.380463,   0.950468,  -0.459639, -55.500000, -181.500000, -307.500000,   0.764062, -48.057320,  27.033044,   0.887352,  -0.397313,  -0.089244,   0.216097, 
19493,  -0.126680,  -7.294019,   6.564594,  50.446836,  -0.518373,   0.428982,   0.383499,   0.946121,  -0.483805, -54.000000, -184.500000, -315.000000,   0.762623, -47.559488,  27.042006,   0.889054,  -0.393444,  -0.088346,   0.216547, 
19494,  -0.095086,  -7.321547,   6.540220,  49.868520,  -0.510582,   0.532987,   0.375147,   0.946396,  -0.491908, -58.500000, -184.500000, -318.000000,   0.757935, -47.076688,  27.050554,   0.890684,  -0.389676,  -0.087498,   0.216966, 
19495,  -0.125640,  -7.344351,   6.511059,  48.096840,  -0.410055,   0.451434,   0.375318,   0.947210,  -0.496446, -58.500000, -184.500000, -319.500000,   0.752842, -46.621336,  27.059166,   0.892222,  -0.386122,  -0.086705,   0.217364, 
19496,  -0.121156,  -7.225205,   6.585535,  45.893176,  -0.466378,   0.429058,   0.384354,   0.950194,  -0.506493, -54.000000, -184.500000, -322.500000,   0.748699, -46.187336,  27.067220,   0.893665,  -0.382726,  -0.085940,   0.217740, 
19497,  -0.098820,  -7.227500,   6.606814,  43.989232,  -0.503358,   0.458677,   0.378216,   0.947662,  -0.496770, -57.000000, -184.500000, -319.500000,   0.740104, -45.771504,  27.075806,   0.895031,  -0.379454,  -0.085244,   0.218087, 
19498,  -0.108181,  -7.234189,   6.622806,  41.548512,  -0.411917,   0.425678,   0.378200,   0.944855,  -0.506422, -57.000000, -186.000000, -322.500000,   0.731579, -45.388872,  27.083606,   0.896289,  -0.376443,  -0.084608,   0.218405, 
19499,  -0.121330,  -7.175354,   6.577829,  38.609156,  -0.380682,   0.378380,   0.385989,   0.933718,  -0.513664, -52.500000, -190.500000, -324.000000,   0.725690, -45.035572,  27.090834,   0.897448,  -0.373667,  -0.084005,   0.218705, 
19500,  -0.118671,  -7.216333,   6.576116,  34.972680,  -0.219442,   0.313141,   0.388358,   0.928919,  -0.510028, -51.000000, -192.000000, -322.500000,   0.717580, -44.726988,  27.097256,   0.898436,  -0.371225,  -0.083500,   0.218952, 
19501,  -0.130447,  -7.089386,   6.693230,  31.405432,  -0.198752,   0.240366,   0.382870,   0.924032,  -0.537760, -54.000000, -195.000000, -331.500000,   0.712055, -44.444884,  27.102540,   0.899336,  -0.368996,  -0.083020,   0.219180, 
19502,  -0.126746,  -6.980310,   6.782774,  28.480726,  -0.222699,   0.232863,   0.379785,   0.919960,  -0.542551, -55.500000, -196.500000, -333.000000,   0.708087, -44.182984,  27.107724,   0.900170,  -0.366928,  -0.082567,   0.219397, 
19503,  -0.142696,  -6.936292,   6.873178,  26.306556,  -0.187025,   0.238555,   0.382700,   0.923218,  -0.533223, -54.000000, -195.000000, -330.000000,   0.708666, -43.937160,  27.112820,   0.900949,  -0.364995,  -0.082108,   0.219616, 
19504,  -0.104800,  -6.876129,   6.957697,  24.316384,  -0.177805,   0.179081,   0.381999,   0.917153,  -0.524725, -54.000000, -196.500000, -327.000000,   0.704007, -43.706580,  27.117858,   0.901683,  -0.363172,  -0.081719,   0.219808, 
19505,  -0.134989,  -6.747532,   7.039134,  23.147478,  -0.093219,   0.151268,   0.375999,   0.909823,  -0.538844, -57.000000, -199.500000, -331.500000,   0.702532, -43.478524,  27.122394,   0.902396,  -0.361371,  -0.081308,   0.220001, 
19506,  -0.077088,  -6.711082,   7.119722,  22.711002,  -0.157071,   0.031220,   0.376496,   0.909459,  -0.562110, -57.000000, -201.000000, -339.000000,   0.697385, -43.251604,  27.126190,   0.903099,  -0.359568,  -0.080924,   0.220174, 
19507,  -0.100719,  -6.638570,   7.264186,  22.573962,  -0.112015,   0.082729,   0.387916,   0.910451,  -0.558868, -51.000000, -201.000000, -337.500000,   0.695156, -43.016772,  27.129838,   0.903825,  -0.357708,  -0.080501,   0.220360, 
19508,  -0.137592,  -6.438412,   7.435785,  24.265606,  -0.124976,   0.048917,   0.390985,   0.911717,  -0.563730, -49.500000, -201.000000, -339.000000,   0.700845, -42.746596,  27.134222,   0.904653,  -0.355584,  -0.079950,   0.220601, 
19509,  -0.113029,  -6.496890,   7.368649,  26.102384,  -0.190668,   0.207231,   0.374469,   0.915887,  -0.574821, -58.500000, -199.500000, -343.500000,   0.703945, -42.462548,  27.139166,   0.905525,  -0.353345,  -0.079394,   0.220849, 
19510,  -0.126157,  -6.570517,   7.268763,  26.781794,  -0.094555,   0.172908,   0.368160,   0.912541,  -0.560560, -61.500000, -199.500000, -339.000000,   0.705287, -42.187796,  27.144108,   0.906370,  -0.351176,  -0.078870,   0.221084, 
19511,  -0.028277,  -6.207613,   7.652757,  26.763538,  -0.210344,   0.135838,   0.381950,   0.908733,  -0.553683, -54.000000, -201.000000, -336.000000,   0.700984, -41.888928,  27.148882,   0.907265,  -0.348795,  -0.078340,   0.221311, 
19512,  -0.151535,  -6.408353,   7.507701,  29.923234,  -0.216423,   0.370707,   0.390969,   0.908911,  -0.573382, -49.500000, -202.500000, -342.000000,   0.705922, -41.562340,  27.155340,   0.908234,  -0.346211,  -0.077689,   0.221598, 
19513,  -0.116417,  -6.447258,   7.379871,  31.040132,  -0.184098,   0.235635,   0.394022,   0.907370,  -0.587896, -48.000000, -204.000000, -346.500000,   0.708646, -41.249880,  27.161526,   0.909162,  -0.343734,  -0.077082,   0.221867, 
