Standard output of YIS Manager:
  TID,     AccX,     AccY,     AccZ,    AngVX,    AngVY,    AngVZ,     MagX,     MagY,     MagZ, NormMagX, NormMagY, NormMagZ,    Pitch,     Roll,      Yaw,       q0,       q1,       q2,       q3, 
20068,   0.164585,   9.776087,   0.456421,  -0.115772,   0.148856,  -0.092970,   0.212636,  -0.916681,  -0.459745, -61.500000, -798.000000, -229.500000,  -0.960989,  87.372904,  29.177262,   0.698305,   0.669920,   0.168093,   0.187732, 
20069,   0.181950,   9.792764,   0.418595,  -0.153035,   0.241902,  -0.083024,   0.212636,  -0.916681,  -0.459745, -61.500000, -798.000000, -229.500000,  -0.961541,  87.376704,  29.170862,   0.698292,   0.669953,   0.168058,   0.187690, 
20070,   0.143321,   9.816552,   0.494061,  -0.122640,   0.219846,  -0.130464,   0.211902,  -0.928359,  -0.470553, -61.500000, -802.500000, -232.500000,  -0.959117,  87.373272,  29.156644,   0.698339,   0.669949,   0.167984,   0.187594, 
20071,   0.194883,   9.770200,   0.449364,  -0.178782,   0.241915,  -0.092011,   0.211902,  -0.928359,  -0.470553, -61.500000, -802.500000, -232.500000,  -0.960877,  87.374152,  29.143280,   0.698353,   0.669976,   0.167897,   0.187522, 
20072,   0.139784,   9.814550,   0.447869,  -0.130790,   0.180718,  -0.053889,   0.215534,  -0.916230,  -0.460069, -60.000000, -798.000000, -229.500000,  -0.960867,  87.372232,  29.141662,   0.698367,   0.669967,   0.167884,   0.187515, 
20073,   0.177541,   9.790334,   0.464593,  -0.084938,   0.179430,  -0.092087,   0.209395,  -0.918762,  -0.450346, -63.000000, -798.000000, -226.500000,  -0.961871,  87.368520,  29.139916,   0.698390,   0.669948,   0.167862,   0.187515, 
20074,   0.162807,   9.816079,   0.422861,  -0.206964,   0.188561,  -0.101005,   0.203583,  -0.922471,  -0.459351, -66.000000, -799.500000, -229.500000,  -0.960532,  87.373592,  29.121846,   0.698391,   0.670003,   0.167772,   0.187390, 
20075,   0.168086,   9.802813,   0.448597,  -0.127741,   0.197451,  -0.066130,   0.208474,  -0.934061,  -0.466269, -63.000000, -804.000000, -231.000000,  -0.961053,  87.371264,  29.108258,   0.698426,   0.670010,   0.167686,   0.187314, 
20076,   0.192463,   9.763995,   0.401539,  -0.123015,   0.188412,  -0.092347,   0.214303,  -0.927544,  -0.447612, -60.000000, -801.000000, -225.000000,  -0.960254,  87.375616,  29.113362,   0.698394,   0.670028,   0.167728,   0.187334, 
20077,   0.154686,   9.801004,   0.495709,  -0.152509,   0.295279,  -0.082070,   0.215395,  -0.911431,  -0.436227, -60.000000, -795.000000, -222.000000,  -0.959631,  87.371776,  29.129138,   0.698392,   0.669980,   0.167818,   0.187432, 
20078,   0.151932,   9.800828,   0.455295,  -0.100311,   0.172663,  -0.069169,   0.214679,  -0.920302,  -0.437381, -60.000000, -798.000000, -222.000000,  -0.958243,  87.368488,  29.143120,   0.698390,   0.669938,   0.167902,   0.187514, 
20079,   0.152079,   9.791748,   0.395945,  -0.110860,   0.161651,  -0.101392,   0.217372,  -0.926278,  -0.452473, -58.500000, -801.000000, -226.500000,  -0.957295,  87.372768,  29.147692,   0.698359,   0.669956,   0.167942,   0.187530, 
20080,   0.177422,   9.808030,   0.482244,  -0.198578,   0.267700,  -0.084035,   0.211560,  -0.929988,  -0.461478, -61.500000, -802.500000, -229.500000,  -0.960269,  87.371888,  29.141218,   0.698370,   0.669965,   0.167884,   0.187509, 
20081,   0.167421,   9.797480,   0.457441,  -0.144987,   0.197711,  -0.022800,   0.205935,  -0.930076,  -0.465367, -64.500000, -802.500000, -231.000000,  -0.959953,  87.368616,  29.124742,   0.698417,   0.669968,   0.167785,   0.187412, 
20082,   0.166489,   9.779879,   0.390864,  -0.062691,   0.117223,  -0.069739,   0.205405,  -0.935326,  -0.461407, -64.500000, -804.000000, -229.500000,  -0.959500,  87.374608,  29.107880,   0.698410,   0.670028,   0.167699,   0.187297, 
20083,   0.181174,   9.828072,   0.500646,  -0.119038,   0.206240,  -0.083284,   0.208336,  -0.929262,  -0.442426, -63.000000, -801.000000, -223.500000,  -0.961144,  87.371952,  29.111174,   0.698417,   0.670010,   0.167704,   0.187331, 
20084,   0.142364,   9.794064,   0.442629,  -0.039287,   0.164500,  -0.091850,   0.221362,  -0.909714,  -0.441412, -57.000000, -795.000000, -223.500000,  -0.959443,  87.369488,  29.130016,   0.698404,   0.669965,   0.167820,   0.187440, 
20085,   0.172029,   9.741364,   0.433830,  -0.050530,   0.197499,  -0.021764,   0.224790,  -0.904013,  -0.445696, -55.500000, -793.500000, -225.000000,  -0.960986,  87.373536,  29.149306,   0.698346,   0.669964,   0.167930,   0.187560, 
20086,   0.146016,   9.834373,   0.507733,  -0.107516,   0.212101,  -0.091755,   0.209600,  -0.912335,  -0.435579, -63.000000, -795.000000, -222.000000,  -0.961050,  87.368824,  29.158114,   0.698360,   0.669923,   0.167974,   0.187621, 
20087,   0.147021,   9.798731,   0.464371,  -0.067750,   0.179347,  -0.100602,   0.211951,  -0.919939,  -0.441595, -61.500000, -798.000000, -223.500000,  -0.957870,  87.366176,  29.164216,   0.698370,   0.669893,   0.168024,   0.187644, 
20088,   0.153027,   9.785112,   0.430112,  -0.122859,   0.204227,  -0.092064,   0.209070,  -0.917585,  -0.431619, -63.000000, -796.500000, -220.500000,  -0.956501,  87.370528,  29.172946,   0.698333,   0.669904,   0.168091,   0.187683, 
20089,   0.204076,   9.809755,   0.449460,  -0.067809,   0.170362,  -0.118168,   0.201076,  -0.912875,  -0.439144, -67.500000, -795.000000, -223.500000,  -0.959905,  87.370808,  29.167718,   0.698334,   0.669919,   0.168040,   0.187670, 
20090,   0.167017,   9.813942,   0.432334,  -0.115394,   0.196578,  -0.037966,   0.210096,  -0.912697,  -0.458843, -63.000000, -796.500000, -229.500000,  -0.959439,  87.371760,  29.158608,   0.698344,   0.669937,   0.167991,   0.187611, 
20091,   0.162472,   9.765004,   0.454431,  -0.136038,   0.214909,  -0.135535,   0.227126,  -0.914424,  -0.461365, -54.000000, -798.000000, -229.500000,  -0.960342,  87.371672,  29.170810,   0.698324,   0.669921,   0.168057,   0.187690, 
20092,   0.167460,   9.800444,   0.452131,  -0.059454,   0.152727,  -0.083578,   0.220270,  -0.925827,  -0.452797, -57.000000, -801.000000, -226.500000,  -0.960131,  87.370608,  29.180462,   0.698315,   0.669900,   0.168113,   0.187750, 
20093,   0.156656,   9.798713,   0.453820,  -0.050633,   0.179485,  -0.065599,   0.207636,  -0.935327,  -0.433929, -63.000000, -802.500000, -220.500000,  -0.960278,  87.369672,  29.187772,   0.698308,   0.669884,   0.168153,   0.187796, 
20094,   0.180603,   9.801554,   0.462853,  -0.102227,   0.179823,  -0.022647,   0.205080,  -0.934149,  -0.442680, -64.500000, -802.500000, -223.500000,  -0.962219,  87.369472,  29.185612,   0.698310,   0.669889,   0.168128,   0.187795, 
20095,   0.174132,   9.780993,   0.410856,  -0.170810,   0.170461,  -0.145410,   0.200156,  -0.928173,  -0.455067, -67.500000, -801.000000, -228.000000,  -0.963993,  87.373040,  29.167086,   0.698316,   0.669940,   0.168015,   0.187687, 
20096,   0.176998,   9.786233,   0.446881,  -0.076732,   0.134752,  -0.127602,   0.209395,  -0.918762,  -0.450346, -63.000000, -798.000000, -226.500000,  -0.964653,  87.371840,  29.164616,   0.698326,   0.669937,   0.167994,   0.187677, 
20097,   0.162491,   9.773266,   0.459748,  -0.067501,   0.206080,  -0.091422,   0.209566,  -0.917947,  -0.454884, -63.000000, -798.000000, -228.000000,  -0.962753,  87.371296,  29.157630,   0.698343,   0.669941,   0.167964,   0.187625, 
20098,   0.155479,   9.809929,   0.462081,  -0.136621,   0.161709,  -0.101674,   0.203241,  -0.924101,  -0.450276, -66.000000, -799.500000, -226.500000,  -0.962051,  87.371208,  29.146744,   0.698363,   0.669955,   0.167905,   0.187554, 
20099,   0.145307,   9.797005,   0.443111,  -0.093685,   0.170774,  -0.048823,   0.212277,  -0.921117,  -0.460322, -61.500000, -799.500000, -229.500000,  -0.961433,  87.371136,  29.140466,   0.698374,   0.669963,   0.167872,   0.187512, 
20100,   0.164564,   9.803447,   0.432636,  -0.162572,   0.144019,  -0.093572,   0.224398,  -0.914061,  -0.465579, -55.500000, -798.000000, -231.000000,  -0.960953,  87.372768,  29.145070,   0.698358,   0.669965,   0.167904,   0.187535, 
20101,   0.155412,   9.807542,   0.474473,  -0.111488,   0.099421,  -0.093801,   0.212122,  -0.919125,  -0.446133, -61.500000, -798.000000, -225.000000,  -0.960842,  87.372664,  29.148328,   0.698353,   0.669960,   0.167924,   0.187555, 
20102,   0.144603,   9.788118,   0.456674,   0.026604,   0.170283,  -0.091021,   0.209070,  -0.917585,  -0.431619, -63.000000, -796.500000, -220.500000,  -0.958764,  87.369888,  29.156812,   0.698359,   0.669927,   0.167982,   0.187598, 
20103,   0.157400,   9.815871,   0.440854,  -0.084951,   0.188636,  -0.031003,   0.205438,  -0.929713,  -0.442102, -64.500000, -801.000000, -223.500000,  -0.958763,  87.370472,  29.165894,   0.698341,   0.669918,   0.168036,   0.187653, 
20104,   0.179094,   9.852981,   0.457565,  -0.195825,   0.250718,  -0.118151,   0.208662,  -0.930440,  -0.461153, -63.000000, -802.500000, -229.500000,  -0.960988,  87.369104,  29.160784,   0.698354,   0.669920,   0.167990,   0.187637, 
20105,   0.163928,   9.799306,   0.436170,  -0.059249,   0.179593,  -0.048286,   0.208474,  -0.934061,  -0.466269, -63.000000, -804.000000, -231.000000,  -0.961921,  87.368736,  29.148266,   0.698375,   0.669938,   0.167911,   0.187566, 
20106,   0.151788,   9.777473,   0.445507,  -0.067675,   0.197449,  -0.039359,   0.211902,  -0.928359,  -0.470553, -61.500000, -802.500000, -232.500000,  -0.960448,  87.369528,  29.133400,   0.698397,   0.669962,   0.167834,   0.187466, 
20107,   0.131562,   9.825380,   0.467815,  -0.102404,   0.152868,  -0.075345,   0.214816,  -0.925101,  -0.461224, -60.000000, -801.000000, -229.500000,  -0.958918,  87.369816,  29.124166,   0.698412,   0.669975,   0.167790,   0.187400, 
20108,   0.148269,   9.805234,   0.460844,  -0.162207,   0.179559,  -0.101639,   0.202695,  -0.932157,  -0.455968, -66.000000, -802.500000, -228.000000,  -0.956303,  87.368176,  29.114234,   0.698442,   0.669975,   0.167745,   0.187327, 
20109,   0.183490,   9.770832,   0.451641,  -0.144333,   0.241528,  -0.152559,   0.209754,  -0.914327,  -0.449769, -63.000000, -796.500000, -226.500000,  -0.957575,  87.369160,  29.106462,   0.698447,   0.669994,   0.167693,   0.187285, 
20110,   0.169755,   9.796263,   0.470441,  -0.024362,   0.223687,  -0.108039,   0.218823,  -0.905730,  -0.440511, -58.500000, -793.500000, -223.500000,  -0.957724,  87.366224,  29.114208,   0.698451,   0.669965,   0.167733,   0.187338, 
20111,   0.156643,   9.798707,   0.456771,  -0.093393,   0.197374,  -0.065753,   0.215004,  -0.921480,  -0.456109, -60.000000, -799.500000, -228.000000,  -0.956694,  87.365856,  29.122426,   0.698442,   0.669950,   0.167786,   0.187383, 
20112,   0.144171,   9.797627,   0.429530,  -0.118381,   0.268381,  -0.108281,   0.212619,  -0.919488,  -0.469398, -61.500000, -799.500000, -232.500000,  -0.954341,  87.368536,  29.115622,   0.698441,   0.669972,   0.167765,   0.187323, 
20113,   0.165026,   9.813411,   0.475729,  -0.067399,   0.214932,  -0.099966,   0.209224,  -0.919577,  -0.445809, -63.000000, -798.000000, -225.000000,  -0.953399,  87.365408,  29.110404,   0.698469,   0.669959,   0.167736,   0.187291, 
20114,   0.179426,   9.780340,   0.432732,  -0.144609,   0.224046,  -0.091952,   0.206139,  -0.923649,  -0.450600, -64.500000, -799.500000, -226.500000,  -0.953820,  87.367952,  29.106772,   0.698459,   0.669981,   0.167716,   0.187267, 
20115,   0.211066,   9.838788,   0.392876,  -0.822633,   0.261154,  -0.098762,   0.205951,  -0.927270,  -0.455715, -64.500000, -801.000000, -228.000000,  -0.956626,  87.381408,  29.095828,   0.698394,   0.670082,   0.167657,   0.187197, 
20116,   0.083955,   9.799261,   0.633869,  -0.171132,   0.134787,  -0.163453,   0.208695,  -0.924827,  -0.441849, -63.000000, -799.500000, -223.500000,  -0.955966,  87.355232,  29.097462,   0.698546,   0.669920,   0.167628,   0.187242, 
20117,   0.226043,   9.779170,   0.323898,   0.179741,   0.036846,  -0.022081,   0.215004,  -0.921480,  -0.456109, -60.000000, -799.500000, -228.000000,  -0.956222,  87.359208,  29.098046,   0.698521,   0.669944,   0.167636,   0.187241, 
20118,   0.157177,   9.817545,   0.493968,  -0.452983,   0.295733,  -0.128887,   0.214645,  -0.925915,  -0.456687, -60.000000, -801.000000, -228.000000,  -0.961448,  87.368096,  29.098306,   0.698460,   0.670006,   0.167620,   0.187260, 
20119,   0.098602,   9.801842,   0.591816,   0.014183,   0.180550,  -0.021352,   0.207995,  -0.930891,  -0.433351, -63.000000, -801.000000, -220.500000,  -0.953672,  87.346920,  29.105066,   0.698586,   0.669855,   0.167673,   0.187287, 
20120,   0.220629,   9.740858,   0.283110,   0.120787,   0.161750,   0.023002,   0.212293,  -0.918311,  -0.450670, -61.500000, -798.000000, -226.500000,  -0.959184,  87.359808,  29.109210,   0.698495,   0.669936,   0.167684,   0.187325, 
20121,   0.112851,   9.832878,   0.537386,  -0.259967,   0.228102,  -0.124094,   0.203583,  -0.922471,  -0.459351, -66.000000, -799.500000, -229.500000,  -0.955708,  87.363600,  29.099790,   0.698493,   0.669967,   0.167656,   0.187242, 
20122,   0.195388,   9.772516,   0.473567,   0.060412,   0.116872,  -0.082894,   0.197461,  -0.922197,  -0.439975, -69.000000, -798.000000, -223.500000,  -0.955651,  87.355032,  29.088602,   0.698562,   0.669931,   0.167578,   0.187186, 
20123,   0.169069,   9.777964,   0.285964,  -0.145149,   0.259436,  -0.130009,   0.203787,  -0.916044,  -0.444583, -66.000000, -796.500000, -225.000000,  -0.957103,  87.375928,  29.076584,   0.698456,   0.670078,   0.167532,   0.187090, 
20124,   0.158804,   9.889990,   0.618554,  -0.349676,   0.322190,  -0.127279,   0.206106,  -0.929262,  -0.469905, -64.500000, -802.500000, -232.500000,  -0.958677,  87.365720,  29.067370,   0.698529,   0.670032,   0.167452,   0.187059, 
20125,   0.174566,   9.773069,   0.363117,  -0.107749,   0.188377,  -0.092179,   0.212977,  -0.915053,  -0.468820, -61.500000, -798.000000, -232.500000,  -0.960026,  87.365272,  29.053236,   0.698552,   0.670052,   0.167361,   0.186981, 
20126,   0.192239,   9.770361,   0.369082,  -0.169946,   0.268629,  -0.082736,   0.210284,  -0.909077,  -0.453729, -63.000000, -795.000000, -228.000000,  -0.963623,  87.376488,  29.045116,   0.698494,   0.670137,   0.167309,   0.186936, 
20127,   0.100442,   9.840722,   0.582414,   0.020930,   0.069194,  -0.147031,   0.208695,  -0.924827,  -0.441849, -63.000000, -799.500000, -223.500000,  -0.963758,  87.368752,  29.046942,   0.698536,   0.670088,   0.167307,   0.186959, 
20128,   0.143317,   9.815801,   0.509208,  -0.178855,   0.232975,  -0.100873,   0.208662,  -0.930440,  -0.461153, -63.000000, -802.500000, -229.500000,  -0.960481,  87.366224,  29.043452,   0.698562,   0.670072,   0.167302,   0.186922, 
20129,   0.156645,   9.787148,   0.457943,  -0.016570,   0.148712,  -0.076408,   0.209021,  -0.926004,  -0.460576, -63.000000, -801.000000, -229.500000,  -0.956350,  87.365304,  29.032712,   0.698591,   0.670076,   0.167263,   0.186834, 
20130,   0.167619,   9.782231,   0.394284,  -0.170691,   0.197592,  -0.057897,   0.209208,  -0.922383,  -0.455461, -63.000000, -799.500000, -228.000000,  -0.954012,  87.367960,  29.024094,   0.698593,   0.670101,   0.167231,   0.186764, 
20131,   0.219479,   9.785012,   0.339328,  -0.390493,   0.149276,  -0.134669,   0.206326,  -0.920028,  -0.445485, -64.500000, -798.000000, -225.000000,  -0.958262,  87.378848,  29.018756,   0.698531,   0.670181,   0.167192,   0.186740, 
20132,   0.224325,   9.795133,   0.324486,  -0.677270,   0.180229,  -0.203034,   0.211063,  -0.929625,  -0.438213, -61.500000, -801.000000, -222.000000,  -0.962858,  87.391600,  29.020830,   0.698445,   0.670263,   0.167196,   0.186761, 
20133,   0.159304,   9.800239,   0.474234,  -0.680664,   0.117706,  -0.254465,   0.215191,  -0.917859,  -0.450994, -60.000000, -798.000000, -226.500000,  -0.962593,  87.386816,  29.027810,   0.698463,   0.670223,   0.167231,   0.186809, 
20134,   0.081847,   9.763762,   0.662747,  -0.583352,   0.135846,  -0.141867,   0.210284,  -0.909077,  -0.453729, -63.000000, -795.000000, -228.000000,  -0.951311,  87.358688,  29.028724,   0.698644,   0.670034,   0.167260,   0.186790, 
20135,   0.164623,   9.819607,   0.498943,  -0.428266,   0.197044,  -0.087820,   0.215737,  -0.909803,  -0.445302, -60.000000, -795.000000, -225.000000,  -0.951126,  87.343584,  29.034434,   0.698724,   0.669933,   0.167270,   0.186846, 
20136,   0.196748,   9.812341,   0.346718,  -0.377630,   0.090680,  -0.183918,   0.218464,  -0.910165,  -0.441088, -58.500000, -795.000000, -223.500000,  -0.953296,  87.353624,  29.045536,   0.698643,   0.669981,   0.167338,   0.186912, 
20137,   0.134247,   9.828111,   0.511837,  -0.429191,   0.085824,  -0.190374,   0.214662,  -0.923109,  -0.447034, -60.000000, -799.500000, -225.000000,  -0.951738,  87.347160,  29.056958,   0.698665,   0.669923,   0.167404,   0.186982, 
20138,   0.097351,   9.755664,   0.534201,  -0.153415,   0.206406,  -0.066253,   0.208303,  -0.934875,  -0.461731, -63.000000, -804.000000, -229.500000,  -0.941408,  87.333288,  29.053710,   0.698768,   0.669828,   0.167425,   0.186922, 
20139,   0.227007,   9.880402,   0.435974,  -0.229615,   0.220440,  -0.062008,   0.208629,  -0.936052,  -0.480458, -63.000000, -805.500000, -235.500000,  -0.947291,  87.333752,  29.038472,   0.698781,   0.669862,   0.167301,   0.186863, 
20140,   0.196640,   9.809937,   0.368552,  -0.317299,   0.126529,  -0.104290,   0.211389,  -0.930802,  -0.456940, -61.500000, -802.500000, -228.000000,  -0.952482,  87.344400,  29.024806,   0.698732,   0.669954,   0.167207,   0.186794, 
20141,   0.153156,   9.754017,   0.485698,  -0.146615,   0.117293,  -0.093871,   0.208166,  -0.930076,  -0.437888, -63.000000, -801.000000, -222.000000,  -0.951181,  87.340200,  29.026352,   0.698757,   0.669925,   0.167217,   0.186802, 
20142,   0.144858,   9.788560,   0.535758,  -0.075927,   0.223936,  -0.082494,   0.205438,  -0.929713,  -0.442102, -64.500000, -801.000000, -223.500000,  -0.947384,  87.332544,  29.030240,   0.698801,   0.669867,   0.167250,   0.186815, 
20143,   0.209531,   9.831775,   0.355024,  -0.122301,   0.259542,  -0.098811,   0.202711,  -0.929351,  -0.446316, -66.000000, -801.000000, -225.000000,  -0.950814,  87.339384,  29.026906,   0.698761,   0.669918,   0.167221,   0.186805, 
20144,   0.229262,   9.794919,   0.428392,  -0.051234,   0.108006,  -0.127797,   0.214645,  -0.925915,  -0.456687, -60.000000, -801.000000, -228.000000,  -0.956706,  87.345424,  29.024918,   0.698720,   0.669967,   0.167183,   0.186818, 
20145,   0.113208,   9.788147,   0.509555,  -0.403170,   0.126721,  -0.105232,   0.218635,  -0.909351,  -0.445626, -58.500000, -795.000000, -225.000000,  -0.954438,  87.341416,  29.030898,   0.698737,   0.669930,   0.167225,   0.186847, 
20146,   0.177882,   9.796965,   0.394371,  -0.360453,   0.108966,  -0.078968,   0.210487,  -0.902649,  -0.438961, -63.000000, -792.000000, -223.500000,  -0.953803,  87.341008,  29.040008,   0.698726,   0.669914,   0.167282,   0.186899, 
20147,   0.173960,   9.811836,   0.349499,  -0.471372,   0.162018,  -0.192386,   0.207573,  -0.905907,  -0.448290, -64.500000, -793.500000, -226.500000,  -0.955374,  87.351296,  29.039254,   0.698664,   0.669980,   0.167284,   0.186889, 
20148,   0.140684,   9.762053,   0.499709,  -0.634718,   0.126312,  -0.290552,   0.209224,  -0.919577,  -0.445809, -63.000000, -798.000000, -225.000000,  -0.953341,  87.348152,  29.037048,   0.698689,   0.669961,   0.167279,   0.186868, 
20149,   0.165900,   9.805015,   0.540058,  -0.592479,   0.082532,  -0.134212,   0.220971,  -0.919763,  -0.461295, -57.000000, -799.500000, -229.500000,  -0.951973,  87.332608,  29.042348,   0.698774,   0.669857,   0.167293,   0.186916, 
20150,   0.144100,   9.792290,   0.439558,  -0.437210,   0.162517,  -0.078862,   0.217869,  -0.926641,  -0.475738, -58.500000, -802.500000, -234.000000,  -0.951174,  87.326912,  29.040774,   0.698811,   0.669823,   0.167279,   0.186910, 
20151,   0.138402,   9.790413,   0.506793,  -0.764016,   0.100621,  -0.153186,   0.206806,  -0.923197,  -0.478402, -64.500000, -801.000000, -235.500000,  -0.947134,  87.321536,  29.022170,   0.698879,   0.669811,   0.167187,   0.186780, 
20152,   0.151351,   9.770469,   0.400057,  -0.754771,   0.171905,  -0.125709,   0.212806,  -0.915867,  -0.464283, -61.500000, -798.000000, -231.000000,  -0.944677,  87.317528,  29.013458,   0.698921,   0.669796,   0.167144,   0.186719, 
20153,   0.191558,   9.742025,   0.354304,  -1.236184,   0.119652,  -0.123238,   0.220270,  -0.925827,  -0.452797, -57.000000, -801.000000, -226.500000,  -0.944249,  87.319976,  29.022456,   0.698892,   0.669797,   0.167203,   0.186768, 
20154,   0.121532,   9.674874,   0.390917,  -2.068555,   0.183929,  -0.105157,   0.223373,  -0.918948,  -0.438354, -55.500000, -798.000000, -222.000000,  -0.940515,  87.313960,  29.044664,   0.698898,   0.669722,   0.167346,   0.186890, 
20155,   0.121383,   9.630589,   0.372590,  -3.527106,   0.320872,  -0.075276,   0.220645,  -0.918585,  -0.442567, -57.000000, -798.000000, -223.500000,  -0.931978,  87.296512,  29.058630,   0.698991,   0.669583,   0.167452,   0.186951, 
20156,   0.166204,   9.658322,   0.297402,  -5.279485,   0.271739,  -0.034534,   0.217543,  -0.925464,  -0.457011, -58.500000, -801.000000, -228.000000,  -0.930072,  87.271224,  29.059728,   0.699140,   0.669425,   0.167429,   0.186984, 
20157,   0.173691,   9.610656,   0.173491,  -7.366672,   0.223092,  -0.049688,   0.218431,  -0.915778,  -0.460393, -58.500000, -798.000000, -229.500000,  -0.927901,  87.242800,  29.055760,   0.699317,   0.669255,   0.167373,   0.186989, 
20158,   0.116695,   9.531593,   0.231439, -10.465173,   0.363188,  -0.142254,   0.218773,  -0.914149,  -0.469468, -58.500000, -798.000000, -232.500000,  -0.920550,  87.187968,  29.044202,   0.699669,   0.668927,   0.167262,   0.186956, 
20159,   0.162998,  10.243504,   1.172991, -12.166176,   0.204393,  -0.651179,   0.221297,  -0.920940,  -0.480022, -57.000000, -801.000000, -235.500000,  -0.923952,  87.085304,  29.049432,   0.700251,   0.668295,   0.167103,   0.187157, 
20160,   0.348150,   8.772771,  -0.556402,   0.772671,   0.089203,   0.046301,   0.221671,  -0.913698,  -0.469792, -57.000000, -798.000000, -232.500000,  -0.922807,  87.040456,  29.066982,   0.700485,   0.667992,   0.167138,   0.187323, 
20161,   0.243745,   9.189505,   0.238644,   0.490397,   0.214785,   0.123749,   0.218773,  -0.914149,  -0.469468, -58.500000, -798.000000, -232.500000,  -0.926847,  87.048256,  29.071986,   0.700425,   0.668039,   0.167156,   0.187365, 
20162,   0.192149,   9.519472,   0.230222,   0.069192,   0.152925,   0.013574,   0.218244,  -0.919399,  -0.465508, -58.500000, -799.500000, -231.000000,  -0.925579,  87.039712,  29.075252,   0.700471,   0.667980,   0.167168,   0.187390, 
20163,   0.281546,   9.765878,   0.360893,  -0.376690,   0.216113,  -0.007620,   0.204658,  -0.909165,  -0.457618, -66.000000, -795.000000, -229.500000,  -0.931477,  87.041456,  29.065756,   0.700467,   0.668013,   0.167080,   0.187364, 
20164,   0.128762,   9.717905,   0.432901,  -0.754595,   0.189697,  -0.125391,   0.194889,  -0.923826,  -0.458379, -70.500000, -799.500000, -229.500000,  -0.932872,  87.038072,  29.042816,   0.700522,   0.668028,   0.166932,   0.187237, 
20165,   0.131784,   9.708806,   0.553311,  -1.020924,   0.181532,  -0.102361,   0.199797,  -0.932608,  -0.455644, -67.500000, -802.500000, -228.000000,  -0.928320,  87.024384,  29.028736,   0.700631,   0.667957,   0.166855,   0.187144, 
20166,   0.192415,   9.825018,   0.530236,  -1.192199,   0.217148,  -0.173239,   0.206293,  -0.925641,  -0.464790, -64.500000, -801.000000, -231.000000,  -0.932491,  87.005848,  29.020676,   0.700746,   0.667861,   0.166752,   0.187146, 
20167,   0.195661,   9.763785,   0.400972,  -1.656160,   0.200663,  -0.126425,   0.206310,  -0.922834,  -0.455137, -64.500000, -799.500000, -228.000000,  -0.931764,  87.004736,  29.013594,   0.700765,   0.667864,   0.166714,   0.187100, 
20168,   0.143271,   9.758921,   0.589431,  -1.991754,   0.130245,  -0.131373,   0.208695,  -0.924827,  -0.441849, -63.000000, -799.500000, -223.500000,  -0.931197,  86.984432,  29.021976,   0.700870,   0.667726,   0.166733,   0.187177, 
20169,   0.141558,   9.817339,   0.639032,  -2.273928,   0.255517,  -0.114850,   0.214662,  -0.923109,  -0.447034, -60.000000, -799.500000, -225.000000,  -0.925784,  86.949808,  29.035354,   0.701057,   0.667486,   0.166787,   0.187278, 
20170,   0.183592,   9.750239,   0.403824,  -2.299922,   0.237960,  -0.080636,   0.216079,  -0.908173,  -0.454377, -60.000000, -795.000000, -228.000000,  -0.929082,  86.932912,  29.044082,   0.701136,   0.667374,   0.166790,   0.187375, 
20171,   0.169895,   9.778969,   0.554824,  -2.446822,   0.140296,  -0.110099,   0.219832,  -0.903649,  -0.477388, -58.500000, -795.000000, -235.500000,  -0.929142,  86.913376,  29.039628,   0.701256,   0.667261,   0.166731,   0.187376, 
20172,   0.161087,   9.775974,   0.525117,  -2.641967,   0.178056,  -0.158960,   0.216730,  -0.910528,  -0.491832, -60.000000, -798.000000, -240.000000,  -0.931214,  86.886376,  29.023230,   0.701436,   0.667122,   0.166579,   0.187327, 
20173,   0.174703,   9.683098,   0.301613,  -3.425232,   0.186754,  -0.163567,   0.210455,  -0.908262,  -0.458266, -63.000000, -795.000000, -229.500000,  -0.930904,  86.879760,  29.017764,   0.701484,   0.667089,   0.166538,   0.187301, 
20174,   0.162928,   9.749637,   0.560260,  -4.329684,   0.094820,  -0.186768,   0.209241,  -0.916770,  -0.436156, -63.000000, -796.500000, -222.000000,  -0.928481,  86.847000,  29.029630,   0.701658,   0.666867,   0.166569,   0.187407, 
20175,   0.108696,   9.730837,   0.514203,  -5.305909,   0.173008,  -0.219341,   0.212277,  -0.921117,  -0.460322, -61.500000, -799.500000, -229.500000,  -0.924661,  86.803160,  29.028614,   0.701920,   0.666593,   0.166514,   0.187442, 
20176,   0.174770,   9.701423,   0.475332,  -6.243923,   0.257081,  -0.243652,   0.216030,  -0.916593,  -0.483334, -60.000000, -799.500000, -237.000000,  -0.923570,  86.754568,  29.016984,   0.702223,   0.666310,   0.166374,   0.187435, 
20177,   0.090018,   9.750916,   0.560701,  -7.220392,   0.212672,  -0.283241,   0.219661,  -0.904464,  -0.472851, -58.500000, -795.000000, -234.000000,  -0.916440,  86.694520,  29.015932,   0.702584,   0.665931,   0.166313,   0.187475, 
20178,   0.181416,   9.779895,   0.631763,  -7.540852,   0.339427,  -0.186853,   0.210625,  -0.907448,  -0.462804, -63.000000, -795.000000, -231.000000,  -0.916493,  86.613704,  29.017104,   0.703051,   0.665433,   0.166187,   0.187599, 
20179,   0.153694,   9.715933,   0.485020,  -8.138265,   0.331007,  -0.169409,   0.212961,  -0.917859,  -0.478473, -61.500000, -799.500000, -235.500000,  -0.913853,  86.546160,  29.007542,   0.703462,   0.665028,   0.166037,   0.187623, 
20180,   0.182814,   9.703280,   0.587131,  -9.045107,   0.287529,  -0.188875,   0.222372,  -0.907633,  -0.478289, -57.000000, -796.500000, -235.500000,  -0.913453,  86.465872,  29.012146,   0.703921,   0.664528,   0.165935,   0.187765, 
20181,   0.152589,   9.688011,   0.567616, -10.061466,   0.371089,  -0.155072,   0.209721,  -0.919940,  -0.469074, -63.000000, -799.500000, -232.500000,  -0.913432,  86.377048,  29.008326,   0.704442,   0.663988,   0.165767,   0.187870, 
20182,   0.183034,   9.652010,   0.476409, -11.120612,   0.347231,  -0.272566,   0.209379,  -0.921569,  -0.459998, -63.000000, -799.500000, -229.500000,  -0.911923,  86.288376,  29.010424,   0.704955,   0.663438,   0.165643,   0.188003, 
20183,   0.139429,   9.665668,   0.535634, -12.921093,   0.350468,  -0.256565,   0.222201,  -0.908448,  -0.473752, -57.000000, -796.500000, -234.000000,  -0.909068,  86.185568,  29.018376,   0.705543,   0.662790,   0.165539,   0.188184, 
20184,   0.163148,   9.621093,   0.479912, -14.471108,   0.402557,  -0.238870,   0.217122,  -0.900480,  -0.471949, -60.000000, -793.500000, -234.000000,  -0.904946,  86.067656,  29.021250,   0.706229,   0.662055,   0.165387,   0.188349, 
20185,   0.151227,   9.587708,   0.486685, -16.983194,   0.315108,  -0.301943,   0.213523,  -0.906996,  -0.463128, -61.500000, -795.000000, -231.000000,  -0.899564,  85.940072,  29.025356,   0.706970,   0.661258,   0.165236,   0.188528, 
20186,   0.092406,   9.489120,   0.421065, -19.554482,   0.421685,  -0.333210,   0.219645,  -0.907270,  -0.482503, -58.500000, -796.500000, -237.000000,  -0.890107,  85.786176,  29.023898,   0.707879,   0.660300,   0.165034,   0.188688, 
20187,   0.152952,   9.453233,   0.344377, -23.997110,   0.499848,  -0.384631,   0.217293,  -0.899665,  -0.476487, -60.000000, -793.500000, -235.500000,  -0.881801,  85.618016,  29.021798,   0.708858,   0.659245,   0.164795,   0.188868, 
20188,   0.161791,   9.392004,   0.519614, -27.858644,   0.496005,  -0.361484,   0.211480,  -0.903375,  -0.485491, -63.000000, -795.000000, -238.500000,  -0.875590,  85.393288,  29.013026,   0.710169,   0.657852,   0.164411,   0.189100, 
20189,   0.154743,   9.515805,   0.693810, -31.234874,   0.641052,  -0.383529,   0.217260,  -0.905278,  -0.495792, -60.000000, -796.500000, -241.500000,  -0.868844,  85.114576,  29.011542,   0.711777,   0.656111,   0.163983,   0.189451, 
20190,   0.182814,   9.465402,   0.549723, -35.474076,   0.734452,  -0.456613,   0.211464,  -0.906181,  -0.495144, -63.000000, -796.500000, -241.500000,  -0.866013,  84.824432,  29.003212,   0.713455,   0.654316,   0.163474,   0.189798, 
20191,   0.142265,   9.534516,   0.828288, -38.070328,   0.638654,  -0.450171,   0.206368,  -0.901020,  -0.502993, -66.000000, -795.000000, -244.500000,  -0.861381,  84.473544,  28.991234,   0.715490,   0.652145,   0.162855,   0.190198, 
20192,   0.171766,   9.699862,   1.038194, -39.534532,   0.767216,  -0.516235,   0.215934,  -0.892787,  -0.517000, -61.500000, -793.500000, -249.000000,  -0.860983,  84.082328,  28.991428,   0.717708,   0.649693,   0.162207,   0.190751, 
20193,   0.186456,   9.605027,   0.947288, -40.199536,   0.678933,  -0.490317,   0.219174,  -0.890706,  -0.526399, -60.000000, -793.500000, -252.000000,  -0.861660,  83.689808,  28.993090,   0.719920,   0.647225,   0.161556,   0.191318, 
20194,   0.148883,   9.503715,   0.923005, -42.214652,   0.654025,  -0.663810,   0.227835,  -0.894964,  -0.546676, -55.500000, -796.500000, -258.000000,  -0.854632,  83.305336,  28.989066,   0.722109,   0.644804,   0.160936,   0.191795, 
20195,   0.153950,   9.395856,   1.007100, -44.981808,   0.742521,  -0.646306,   0.214216,  -0.890343,  -0.558091, -63.000000, -795.000000, -262.500000,  -0.847874,  82.890200,  28.964864,   0.724497,   0.642213,   0.160149,   0.192188, 
20196,   0.126380,   9.266918,   0.916380, -49.166728,   0.836099,  -0.659802,   0.206427,  -0.879206,  -0.550849, -67.500000, -790.500000, -261.000000,  -0.835015,  82.457952,  28.935326,   0.726973,   0.639487,   0.159338,   0.192530, 
20197,   0.155607,   9.282913,   1.043035, -54.117364,   0.869840,  -0.735982,   0.223473,  -0.878125,  -0.543718, -58.500000, -790.500000, -258.000000,  -0.827770,  81.977960,  28.941452,   0.729647,   0.636418,   0.158611,   0.193195, 
20198,   0.154384,   9.322748,   1.232496, -58.281732,   0.923984,  -0.719975,   0.225124,  -0.891795,  -0.541237, -57.000000, -795.000000, -256.500000,  -0.819756,  81.440680,  28.961800,   0.732608,   0.632955,   0.157868,   0.194024, 
20199,   0.137076,   9.327901,   1.359256, -61.905920,   0.887730,  -0.743139,   0.224703,  -0.866811,  -0.556176, -58.500000, -787.500000, -262.500000,  -0.811768,  80.861120,  28.977708,   0.735775,   0.629199,   0.157022,   0.194876, 
20200,   0.118877,   9.288712,   1.500143, -65.287568,   1.055283,  -0.812227,   0.220104,  -0.862013,  -0.587290, -61.500000, -787.500000, -273.000000,  -0.800995,  80.241456,  28.984520,   0.739181,   0.625193,   0.156075,   0.195711, 
20201,   0.140926,   9.277112,   1.651972, -68.935992,   1.170190,  -0.859081,   0.218607,  -0.850335,  -0.603961, -63.000000, -784.500000, -279.000000,  -0.791939,  79.581504,  28.979480,   0.742781,   0.620909,   0.154974,   0.196522, 
20202,   0.129628,   9.321754,   1.821295, -71.494600,   1.211566,  -0.877829,   0.219153,  -0.842279,  -0.598269, -63.000000, -781.500000, -277.500000,  -0.783078,  78.880984,  28.979690,   0.746584,   0.616349,   0.153831,   0.197422, 
20203,   0.134192,   9.383294,   2.083404, -73.504768,   1.145263,  -0.831528,   0.213169,  -0.846803,  -0.602736, -66.000000, -783.000000, -279.000000,  -0.775491,  78.144608,  28.988266,   0.750516,   0.611507,   0.152653,   0.198420, 
20204,   0.134791,   9.410161,   2.252215, -74.363320,   1.155910,  -0.875609,   0.213478,  -0.850787,  -0.631116, -66.000000, -786.000000, -288.000000,  -0.770108,  77.386624,  28.993428,   0.754555,   0.606523,   0.151402,   0.199434, 
20205,   0.148529,   9.423984,   2.415801, -74.740584,   1.210004,  -0.904913,   0.220317,  -0.842190,  -0.649336, -63.000000, -784.500000, -294.000000,  -0.765271,  76.622280,  28.996156,   0.758574,   0.601455,   0.150113,   0.200429, 
20206,   0.143984,   9.401192,   2.605785, -74.680208,   1.236557,  -0.903776,   0.219741,  -0.815214,  -0.650085, -64.500000, -775.500000, -295.500000,  -0.758628,  75.849680,  29.002574,   0.762620,   0.596316,   0.148838,   0.201448, 
20207,   0.132937,   9.390849,   2.789827, -74.087624,   1.235005,  -0.940790,   0.231316,  -0.816214,  -0.661033, -58.500000, -777.000000, -298.500000,  -0.753563,  75.073592,  29.020814,   0.766606,   0.591098,   0.147596,   0.202544, 
20208,   0.125921,   9.424306,   2.926125, -73.074984,   1.170456,  -0.930781,   0.234556,  -0.814134,  -0.670432, -57.000000, -777.000000, -301.500000,  -0.746832,  74.303280,  29.050656,   0.770525,   0.585886,   0.146431,   0.203700, 
20209,   0.124427,   9.355535,   3.049412, -71.950120,   1.158901,  -0.944703,   0.234323,  -0.785529,  -0.680256, -58.500000, -768.000000, -306.000000,  -0.740543,  73.544368,  29.080206,   0.774340,   0.580719,   0.145270,   0.204832, 
20210,   0.140606,   9.335166,   3.162830, -70.859696,   1.166012,  -0.802021,   0.241707,  -0.768876,  -0.692783, -55.500000, -763.500000, -310.500000,  -0.735338,  72.796224,  29.110980,   0.778068,   0.575605,   0.144120,   0.205960, 
20211,   0.117405,   9.378712,   3.311998, -69.082624,   1.117539,  -0.783305,   0.236457,  -0.761722,  -0.686443, -58.500000, -760.500000, -309.000000,  -0.726755,  72.062984,  29.144832,   0.781686,   0.570558,   0.143026,   0.207066, 
20212,   0.144627,   9.264990,   3.393566, -67.880456,   1.096559,  -0.866167,   0.230302,  -0.767061,  -0.686373, -61.500000, -762.000000, -309.000000,  -0.724968,  71.348112,  29.182864,   0.785164,   0.565620,   0.141932,   0.208206, 
20213,   0.059610,   9.135983,   3.359206, -67.357328,   1.033331,  -0.818012,   0.236595,  -0.766521,  -0.710286, -58.500000, -763.500000, -316.500000,  -0.713764,  70.652096,  29.215750,   0.788541,   0.560782,   0.140903,   0.209237, 
20214,   0.115248,   9.087703,   3.461095, -67.064248,   1.139208,  -0.856417,   0.240348,  -0.761997,  -0.733297, -57.000000, -763.500000, -324.000000,  -0.705712,  69.958808,  29.247544,   0.791872,   0.555948,   0.139845,   0.210266, 
20215,   0.104524,   9.049782,   3.538891, -67.537088,   1.096142,  -0.792768,   0.241065,  -0.753126,  -0.732142, -57.000000, -760.500000, -324.000000,  -0.698740,  69.273064,  29.279766,   0.795135,   0.551148,   0.138788,   0.211290, 
20216,   0.126520,   9.021059,   3.682446, -67.682760,   1.123026,  -0.820004,   0.240114,  -0.733392,  -0.743121, -58.500000, -754.500000, -328.500000,  -0.696273,  68.582496,  29.314424,   0.798383,   0.546302,   0.137695,   0.212353, 
20217,   0.102171,   8.981827,   3.859287, -67.451360,   1.059700,  -0.923015,   0.243166,  -0.734933,  -0.757635, -57.000000, -756.000000, -333.000000,  -0.689486,  67.883656,  29.347356,   0.801647,   0.541371,   0.136600,   0.213387, 
20218,   0.071036,   8.888548,   3.879647, -67.409048,   1.015698,  -0.810192,   0.249117,  -0.736021,  -0.772473, -54.000000, -757.500000, -337.500000,  -0.676222,  67.189696,  29.381036,   0.804867,   0.536444,   0.135557,   0.214386, 
20219,   0.131999,   8.979035,   4.024163, -67.228120,   1.086818,  -0.737312,   0.250159,  -0.728328,  -0.790045, -54.000000, -756.000000, -343.500000,  -0.668221,  66.503464,  29.416078,   0.808009,   0.531559,   0.134489,   0.215404, 
20220,   0.147767,   8.942574,   4.212518, -66.481492,   1.022290,  -0.843372,   0.254646,  -0.712126,  -0.802249, -52.500000, -751.500000, -348.000000,  -0.663891,  65.814796,  29.452484,   0.811130,   0.526646,   0.133391,   0.216447, 
20221,   0.121626,   8.869152,   4.347422, -65.520072,   0.993663,  -0.789774,   0.249054,  -0.706602,  -0.786834, -55.500000, -748.500000, -343.500000,  -0.658917,  65.129424,  29.493936,   0.814191,   0.521727,   0.132318,   0.217512, 
20222,   0.082734,   8.821911,   4.414378, -64.308976,   1.017411,  -0.819525,   0.249942,  -0.696916,  -0.790216, -55.500000, -745.500000, -345.000000,  -0.652006,  64.456468,  29.540588,   0.817166,   0.516874,   0.131299,   0.218589, 
20223,   0.099901,   8.757226,   4.523643, -63.502536,   0.935399,  -0.838207,   0.254942,  -0.678271,  -0.816033, -54.000000, -741.000000, -354.000000,  -0.641148,  63.795680,  29.581790,   0.820060,   0.512081,   0.130297,   0.219587, 
20224,   0.097432,   8.771357,   4.556683, -62.488480,   1.022352,  -0.773273,   0.252402,  -0.674288,  -0.815131, -55.500000, -739.500000, -354.000000,  -0.633326,  63.150220,  29.620156,   0.822874,   0.507401,   0.129286,   0.220561, 
20225,   0.127917,   8.624032,   4.552941, -61.996652,   0.967755,  -0.791066,   0.249846,  -0.673110,  -0.823882, -57.000000, -739.500000, -357.000000,  -0.627982,  62.521296,  29.658004,   0.825568,   0.502818,   0.128276,   0.221513, 
20226,   0.113970,   8.421947,   4.610274, -62.960848,   1.005310,  -0.839700,   0.253241,  -0.673021,  -0.847471, -55.500000, -741.000000, -364.500000,  -0.616908,  61.889352,  29.677212,   0.828319,   0.498223,   0.127219,   0.222312, 
20227,   0.084587,   8.365059,   4.653687, -64.376924,   1.099746,  -0.791735,   0.255562,  -0.645594,  -0.848544, -55.500000, -732.000000, -366.000000,  -0.601946,  61.244860,  29.693958,   0.831078,   0.493501,   0.126145,   0.223077, 
20228,   0.086650,   8.431678,   4.839060, -65.347344,   1.081885,  -0.855927,   0.254098,  -0.628304,  -0.845909, -57.000000, -726.000000, -366.000000,  -0.588861,  60.588484,  29.725876,   0.833853,   0.488678,   0.125098,   0.223975, 
20229,   0.137587,   8.501072,   5.119488, -65.216264,   1.125276,  -0.816000,   0.250296,  -0.641247,  -0.851856, -58.500000, -730.500000, -367.500000,  -0.586142,  59.917264,  29.765930,   0.836614,   0.483731,   0.123971,   0.224982, 
20230,   0.128376,   8.387861,   5.112588, -64.051452,   1.007936,  -0.816856,   0.248457,  -0.631198,  -0.859452, -60.000000, -727.500000, -370.500000,  -0.583282,  59.253956,  29.806356,   0.839331,   0.478835,   0.122858,   0.225982, 
20231,   0.077677,   8.285344,   5.164534, -63.575764,   1.066315,  -0.783503,   0.253286,  -0.613368,  -0.880731, -58.500000, -723.000000, -378.000000,  -0.574866,  58.604584,  29.838406,   0.841970,   0.474016,   0.121769,   0.226873, 
20232,   0.077088,   8.217596,   5.264941, -63.759812,   0.980769,  -0.779315,   0.265545,  -0.611110,  -0.909829, -52.500000, -724.500000, -387.000000,  -0.562826,  57.956564,  29.854476,   0.844621,   0.469209,   0.120639,   0.227628, 
20233,   0.106454,   8.194106,   5.297932, -63.888592,   1.091135,  -0.709149,   0.269005,  -0.599796,  -0.894808, -51.000000, -720.000000, -382.500000,  -0.554879,  57.312896,  29.857744,   0.847245,   0.464438,   0.119430,   0.228294, 
20234,   0.084795,   8.125036,   5.448477, -64.025368,   1.034390,  -0.850911,   0.260687,  -0.593908,  -0.883606, -55.500000, -717.000000, -379.500000,  -0.546091,  56.665356,  29.860916,   0.849858,   0.459621,   0.118216,   0.228954, 
20235,   0.066023,   8.011516,   5.556654, -64.156112,   1.043973,  -0.774822,   0.253581,  -0.579513,  -0.894514, -60.000000, -712.500000, -384.000000,  -0.536234,  56.009632,  29.864234,   0.852482,   0.454730,   0.116991,   0.229613, 
20236,   0.063043,   7.919936,   5.520766, -64.514748,   1.053547,  -0.803744,   0.260452,  -0.565303,  -0.893430, -57.000000, -708.000000, -384.000000,  -0.525496,  55.358916,  29.867146,   0.855051,   0.449855,   0.115776,   0.230252, 
20237,   0.097884,   7.872523,   5.659093, -65.361832,   1.062104,  -0.865141,   0.266794,  -0.556344,  -0.888385, -54.000000, -705.000000, -382.500000,  -0.517963,  54.703676,  29.870088,   0.857620,   0.444945,   0.114527,   0.230906, 
20238,   0.103411,   7.854829,   5.805482, -65.725420,   1.065163,  -0.816875,   0.273633,  -0.547748,  -0.906606, -51.000000, -703.500000, -388.500000,  -0.506876,  54.038600,  29.873136,   0.860184,   0.439930,   0.113279,   0.231544, 
20239,   0.119646,   7.798573,   5.833368, -65.781312,   1.102743,  -0.838097,   0.274113,  -0.550917,  -0.939523, -51.000000, -706.500000, -399.000000,  -0.498869,  53.376488,  29.876328,   0.862726,   0.434940,   0.112013,   0.232192, 
20240,   0.069831,   7.729191,   6.072490, -65.725076,   1.109910,  -0.763858,   0.271899,  -0.548110,  -0.957349, -52.500000, -706.500000, -405.000000,  -0.486308,  52.706284,  29.879076,   0.865249,   0.429852,   0.110757,   0.232814, 
20241,   0.070694,   7.645370,   6.126144, -65.430992,   1.039243,  -0.727063,   0.261587,  -0.530182,  -0.939553, -58.500000, -699.000000, -400.500000,  -0.477832,  52.033668,  29.881872,   0.867777,   0.424755,   0.109465,   0.233454, 
20242,   0.073571,   7.587214,   6.145602, -65.424332,   1.126983,  -0.768945,   0.257208,  -0.516150,  -0.946248, -61.500000, -694.500000, -403.500000,  -0.466853,  51.372612,  29.884346,   0.870203,   0.419709,   0.108207,   0.234056, 
20243,   0.077999,   7.520083,   6.256737, -65.385040,   1.038629,  -0.827134,   0.260090,  -0.518505,  -0.956224, -60.000000, -696.000000, -406.500000,  -0.460935,  50.710240,  29.886724,   0.872628,   0.414664,   0.106907,   0.234678, 
20244,   0.064702,   7.476865,   6.398641, -65.090636,   1.010757,  -0.732522,   0.266774,  -0.507917,  -0.960255, -57.000000, -693.000000, -408.000000,  -0.450965,  50.044672,  29.888876,   0.875015,   0.409561,   0.105625,   0.235273, 
20245,   0.075590,   7.399497,   6.421358, -64.636764,   1.068777,  -0.779676,   0.270372,  -0.501400,  -0.969076, -55.500000, -691.500000, -411.000000,  -0.442669,  49.386644,  29.891232,   0.877364,   0.404515,   0.104345,   0.235867, 
20246,   0.036341,   7.282986,   6.488003, -64.531784,   1.062349,  -0.829884,   0.268362,  -0.492167,  -0.972135, -57.000000, -688.500000, -412.500000,  -0.430354,  48.734384,  29.893376,   0.879652,   0.399484,   0.103102,   0.236428, 
20247,   0.082028,   7.151426,   6.483139, -65.224128,   1.109675,  -0.777684,   0.269967,  -0.473610,  -0.974362, -57.000000, -682.500000, -414.000000,  -0.422523,  48.079896,  29.895572,   0.881927,   0.394437,   0.101818,   0.237005, 
20248,   0.036684,   7.055356,   6.551588, -66.283944,   1.040038,  -0.762554,   0.285516,  -0.460852,  -0.983902, -49.500000, -679.500000, -417.000000,  -0.407514,  47.419384,  29.897196,   0.884194,   0.389314,   0.100572,   0.237549, 
20249,   0.067485,   6.983019,   6.685933, -67.522064,   1.067349,  -0.811486,   0.290394,  -0.434602,  -0.976223, -48.000000, -670.500000, -415.500000,  -0.396119,  46.741364,  29.898592,   0.886491,   0.384051,   0.099258,   0.238113, 
20250,   0.079017,   6.959062,   6.761347, -68.568280,   1.009095,  -0.884001,   0.277509,  -0.418303,  -0.976831, -55.500000, -664.500000, -417.000000,  -0.388568,  46.053588,  29.899896,   0.888784,   0.378707,   0.097890,   0.238689, 
20251,   0.059989,   6.814823,   6.830745, -69.546336,   1.100256,  -0.893156,   0.272210,  -0.419569,  -0.999448, -58.500000, -666.000000, -424.500000,  -0.375551,  45.357764,  29.901012,   0.891077,   0.373276,   0.096543,   0.239246, 
20252,   0.072335,   6.748965,   6.944695, -70.387152,   1.191640,  -0.796360,   0.273798,  -0.403819,  -1.011328, -58.500000, -661.500000, -429.000000,  -0.364240,  44.647840,  29.902542,   0.893379,   0.367723,   0.095153,   0.239815, 
20253,   0.118298,   6.590426,   6.936076, -71.599352,   1.052108,  -0.794787,   0.271617,  -0.395400,  -1.009849, -60.000000, -658.500000, -429.000000,  -0.357671,  43.933088,  29.903994,   0.895658,   0.362129,   0.093711,   0.240395, 
20254,   0.093228,   6.518126,   7.101676, -73.093104,   1.090916,  -0.836661,   0.275045,  -0.389698,  -1.014133, -58.500000, -657.000000, -430.500000,  -0.345957,  43.201968,  29.904752,   0.897958,   0.356382,   0.092269,   0.240957, 
20255,   0.126457,   6.426537,   7.343239, -73.642752,   1.083254,  -0.842853,   0.284627,  -0.378658,  -1.018488, -54.000000, -654.000000, -432.000000,  -0.334316,  42.448104,  29.905332,   0.900295,   0.350444,   0.090776,   0.241529, 
20256,   0.075001,   6.469823,   7.375345, -73.427432,   1.154118,  -0.804410,   0.291823,  -0.365627,  -1.036131, -51.000000, -651.000000, -438.000000,  -0.320919,  41.700104,  29.906052,   0.902568,   0.344529,   0.089304,   0.242081, 
20257,   0.097503,   6.533633,   7.649392, -72.353712,   1.187293,  -0.791992,   0.293257,  -0.347885,  -1.033821, -51.000000, -645.000000, -438.000000,  -0.308446,  40.963092,  29.906766,   0.904782,   0.338693,   0.087847,   0.242621, 
20258,   0.058582,   6.601359,   7.858657, -69.709584,   1.110139,  -0.772937,   0.292682,  -0.320908,  -1.034569, -52.500000, -636.000000, -439.500000,  -0.297983,  40.246076,  29.907480,   0.906882,   0.333000,   0.086411,   0.243139, 
20259,   0.086367,   6.512974,   7.978606, -65.940796,   0.994475,  -0.820503,   0.294628,  -0.300723,  -1.045872, -52.500000, -630.000000, -444.000000,  -0.290984,  39.560896,  29.907656,   0.908871,   0.327559,   0.085013,   0.243635, 
20260,   0.010194,   6.345878,   8.069399, -62.085076,   1.012859,  -0.708077,   0.293741,  -0.310408,  -1.042489, -52.500000, -633.000000, -442.500000,  -0.281962,  38.905496,  29.907830,   0.910729,   0.322334,   0.083690,   0.244092, 
20261,   0.023401,   6.273309,   7.978564, -59.020580,   0.890102,  -0.720014,   0.300050,  -0.307062,  -1.056750, -49.500000, -633.000000, -447.000000,  -0.269766,  38.294640,  29.907640,   0.912447,   0.317450,   0.082484,   0.244500, 
20262,   0.075419,   6.183758,   8.037317, -56.349272,   0.955141,  -0.715539,   0.304023,  -0.293304,  -1.055341, -48.000000, -628.500000, -447.000000,  -0.270563,  37.715592,  29.907378,   0.914042,   0.312838,   0.081241,   0.244915, 
20263,  -0.033979,   6.025194,   8.061771, -53.980460,   0.825227,  -0.700454,   0.301141,  -0.290949,  -1.045365, -49.500000, -627.000000, -444.000000,  -0.254074,  37.158468,  29.907084,   0.915559,   0.308353,   0.080180,   0.245258, 
20264,   0.034304,   5.993652,   8.032750, -52.194056,   0.847771,  -0.706483,   0.292790,  -0.290674,  -1.053468, -54.000000, -627.000000, -447.000000,  -0.251854,  36.626972,  29.906538,   0.916996,   0.304104,   0.079059,   0.245621, 
20265,   0.066775,   5.856261,   8.119652, -50.519848,   0.826484,  -0.636200,   0.288240,  -0.277456,  -1.055625, -57.000000, -622.500000, -448.500000,  -0.243411,  36.111688,  29.906060,   0.918349,   0.299956,   0.078019,   0.245945, 
20266,   0.030404,   5.799038,   8.146490, -48.630952,   0.786346,  -0.677025,   0.299052,  -0.255102,  -1.072437, -52.500000, -616.500000, -454.500000,  -0.245074,  35.617768,  29.905460,   0.919634,   0.295999,   0.076943,   0.246279, 
20267,   0.224072,   5.734361,   8.185071, -47.171236,   0.792451,  -0.565103,   0.302617,  -0.254199,  -1.100563, -51.000000, -618.000000, -463.500000,  -0.251304,  35.134200,  29.905310,   0.920884,   0.292133,   0.075854,   0.246619, 
20268,   0.137745,   5.716754,   8.307758, -45.470308,   0.859847,  -0.536465,   0.300828,  -0.235731,  -1.079202, -52.500000, -610.500000, -457.500000,  -0.269407,  34.684188,  29.904636,   0.921998,   0.288549,   0.074736,   0.246951, 
20269,   0.389920,   5.600445,   8.336707, -43.574480,   0.659779,  -0.536540,   0.301424,  -0.219255,  -1.044551, -52.500000, -603.000000, -447.000000,  -0.299700,  34.226080,  29.903882,   0.923125,   0.284926,   0.073502,   0.247317, 
20270,   0.140945,   5.463953,   8.236790, -42.053404,   0.781091,  -0.482816,   0.301936,  -0.216811,  -1.058164, -52.500000, -603.000000, -451.500000,  -0.306119,  33.806124,  29.903408,   0.924172,   0.281559,   0.072543,   0.247600, 
20271,   0.218770,   5.552892,   8.223858, -41.323392,   0.788259,  -0.492052,   0.299535,  -0.217626,  -1.081105, -54.000000, -604.500000, -459.000000,  -0.322556,  33.398106,  29.903018,   0.925148,   0.278299,   0.071527,   0.247890, 
20272,   0.155821,   5.410525,   8.334833, -40.860176,   0.742869,  -0.461647,   0.305347,  -0.213916,  -1.072101, -51.000000, -603.000000, -456.000000,  -0.319545,  32.988662,  29.902602,   0.926135,   0.274984,   0.070664,   0.248133, 
20273,   0.021227,   5.295605,   8.142538, -40.602880,   0.697411,  -0.537947,   0.308058,  -0.217086,  -1.077540, -49.500000, -604.500000, -457.500000,  -0.312448,  32.592320,  29.902200,   0.927094,   0.271766,   0.069862,   0.248358, 
20274,   0.044289,   5.094059,   8.112473, -41.839200,   0.727054,  -0.516228,   0.315100,  -0.202062,  -1.080992, -46.500000, -600.000000, -459.000000,  -0.303917,  32.181056,  29.901600,   0.928073,   0.268420,   0.069038,   0.248583, 
20275,  -0.012759,   4.970161,   8.129670, -43.754240,   0.704267,  -0.616056,   0.307482,  -0.190110,  -1.078288, -51.000000, -595.500000, -459.000000,  -0.291336,  31.748496,  29.900720,   0.929080,   0.264886,   0.068198,   0.248803, 
20276,   0.010925,   4.886805,   8.096740, -46.081072,   0.745388,  -0.580038,   0.307295,  -0.193731,  -1.083403, -51.000000, -597.000000, -460.500000,  -0.278986,  31.296724,  29.899382,   0.930132,   0.261196,   0.067315,   0.249032, 
20277,  -0.000495,   4.842949,   8.189871, -48.407532,   0.812844,  -0.613172,   0.318294,  -0.167755,  -1.095100, -46.500000, -589.500000, -465.000000,  -0.266306,  30.822490,  29.898150,   0.931224,   0.257320,   0.066385,   0.249272, 
20278,   0.023647,   4.859554,   8.352882, -50.250732,   0.830783,  -0.640895,   0.316455,  -0.157707,  -1.102696, -48.000000, -586.500000, -468.000000,  -0.254947,  30.326368,  29.897108,   0.932327,   0.253259,   0.065394,   0.249521, 
20279,   0.019390,   4.758678,   8.339273, -51.412472,   0.873015,  -0.636503,   0.316284,  -0.158522,  -1.098159, -48.000000, -586.500000, -466.500000,  -0.242286,  29.817810,  29.895886,   0.933458,   0.249093,   0.064387,   0.249773, 
20280,   0.027094,   4.688104,   8.458234, -52.608828,   0.891670,  -0.619375,   0.313215,  -0.159788,  -1.093297, -49.500000, -586.500000, -465.000000,  -0.231554,  29.294360,  29.894640,   0.934597,   0.244805,   0.063330,   0.250032, 
20281,   0.069774,   4.549841,   8.356621, -53.988220,   0.914342,  -0.672848,   0.314291,  -0.146481,  -1.091565, -49.500000, -582.000000, -465.000000,  -0.227233,  28.756150,  29.892994,   0.935735,   0.240402,   0.062187,   0.250302, 
20282,   0.006344,   4.472855,   8.441670, -55.989832,   0.922555,  -0.741168,   0.310475,  -0.121585,  -1.082914, -52.500000, -573.000000, -463.500000,  -0.214963,  28.202774,  29.891072,   0.936911,   0.235858,   0.061074,   0.250563, 
20283,   0.000737,   4.316399,   8.518833, -57.723696,   0.923129,  -0.635516,   0.310816,  -0.119956,  -1.091989, -52.500000, -573.000000, -466.500000,  -0.203721,  27.620048,  29.889364,   0.938096,   0.231064,   0.059887,   0.250830, 
20284,   0.032765,   4.408786,   8.658480, -58.990160,   0.882239,  -0.697577,   0.315662,  -0.099319,  -1.103616, -51.000000, -567.000000, -471.000000,  -0.191736,  27.032670,  29.887694,   0.939283,   0.226228,   0.058696,   0.251098, 
20285,   0.005765,   4.386726,   8.822263, -59.217668,   0.925953,  -0.756360,   0.322175,  -0.089545,  -1.103109, -48.000000, -564.000000, -471.000000,  -0.180733,  26.442090,  29.885650,   0.940448,   0.221362,   0.057488,   0.251360, 
20286,  -0.056042,   4.223815,   8.891660, -58.737272,   0.976330,  -0.739535,   0.316208,  -0.091263,  -1.097923, -51.000000, -564.000000, -469.500000,  -0.163904,  25.847970,  29.883318,   0.941592,   0.216446,   0.056317,   0.251602, 
20287,  -0.012810,   4.147490,   8.813109, -58.848112,   0.951635,  -0.786644,   0.308589,  -0.079311,  -1.095219, -55.500000, -559.500000, -469.500000,  -0.150638,  25.258860,  29.881228,   0.942718,   0.211578,   0.055129,   0.251851, 
20288,  -0.003555,   4.125258,   8.954408, -58.608096,   0.920842,  -0.708154,   0.313605,  -0.057859,  -1.111383, -54.000000, -553.500000, -475.500000,  -0.137602,  24.671066,  29.878462,   0.943789,   0.206709,   0.053938,   0.252080, 
20289,   0.044477,   4.007490,   8.977507, -58.375608,   0.986558,  -0.702492,   0.314168,  -0.046996,  -1.096038, -54.000000, -549.000000, -471.000000,  -0.131860,  24.086704,  29.876284,   0.944848,   0.201884,   0.052696,   0.252326, 
20290,  -0.018749,   3.909858,   9.007133, -58.187564,   0.974702,  -0.810868,   0.313997,  -0.047811,  -1.091500, -54.000000, -549.000000, -469.500000,  -0.121152,  23.504144,  29.873852,   0.945867,   0.197054,   0.051496,   0.252551, 
20291,  -0.022387,   3.733513,   9.006330, -58.264848,   0.888183,  -0.755237,   0.312158,  -0.037763,  -1.099096, -55.500000, -546.000000, -472.500000,  -0.109335,  22.915112,  29.871060,   0.946879,   0.192165,   0.050290,   0.252770, 
20292,   0.014351,   3.651732,   9.050744, -58.714840,   0.928871,  -0.732395,   0.322644,  -0.014231,  -1.097181, -51.000000, -538.500000, -472.500000,  -0.097331,  22.322760,  29.868282,   0.947879,   0.187244,   0.049078,   0.252986, 
20293,   0.030058,   3.669242,   9.134152, -59.070840,   1.023838,  -0.683379,   0.326756,  -0.005271,  -1.119615, -49.500000, -537.000000, -480.000000,  -0.090106,  21.735144,  29.865612,   0.948826,   0.182364,   0.047835,   0.253198, 
20294,  -0.008729,   3.523413,   9.182682, -58.783764,   0.905263,  -0.741310,   0.317515,  -0.014682,  -1.124335, -54.000000, -540.000000, -481.500000,  -0.080009,  21.146598,  29.862742,   0.949776,   0.177470,   0.046615,   0.253405, 
20295,  -0.008831,   3.359691,   9.164930, -58.934488,   0.925893,  -0.640103,   0.317565,  -0.006262,  -1.095378, -54.000000, -535.500000, -472.500000,  -0.067401,  20.549734,  29.859940,   0.950685,   0.172492,   0.045394,   0.253599, 
20296,  -0.015249,   3.308042,   9.200849, -59.042248,   1.008568,  -0.757794,   0.327101,   0.037003,  -1.104441, -51.000000, -522.000000, -477.000000,  -0.056530,  19.956024,  29.857208,   0.951583,   0.167542,   0.044166,   0.253794, 
20297,   0.010475,   3.199957,   9.220440, -59.260092,   0.979471,  -0.747173,   0.324732,   0.041801,  -1.108076, -52.500000, -520.500000, -478.500000,  -0.046174,  19.362670,  29.853666,   0.952449,   0.162591,   0.042932,   0.253974, 
20298,   0.008007,   3.128692,   9.274341, -59.759700,   1.010100,  -0.781143,   0.324749,   0.044607,  -1.098424, -52.500000, -519.000000, -475.500000,  -0.038067,  18.765738,  29.850422,   0.953290,   0.157610,   0.041671,   0.254156, 
20299,  -0.028388,   3.031007,   9.274331, -59.903416,   1.052087,  -0.752970,   0.327663,   0.047865,  -1.089096, -51.000000, -517.500000, -472.500000,  -0.024410,  18.168370,  29.846980,   0.954123,   0.152611,   0.040455,   0.254326, 
20300,  -0.009408,   2.821017,   9.238854, -60.530940,   0.988345,  -0.743610,   0.335235,   0.068140,  -1.096509, -48.000000, -511.500000, -475.500000,  -0.013419,  17.557316,  29.843280,   0.954923,   0.147496,   0.039185,   0.254490, 
20301,  -0.025865,   2.698321,   9.263500, -61.879676,   0.941182,  -0.715791,   0.327070,   0.072035,  -1.099497, -52.500000, -510.000000, -477.000000,  -0.001444,  16.931466,  29.839424,   0.955743,   0.142255,   0.037890,   0.254657, 
20302,  -0.036156,   2.637706,   9.291513, -63.194308,   1.041616,  -0.802947,   0.327804,   0.083713,  -1.088689, -52.500000, -505.500000, -474.000000,   0.008037,  16.296824,  29.835460,   0.956513,   0.136938,   0.036553,   0.254815, 
20303,  -0.019301,   2.576307,   9.399794, -64.060348,   0.981444,  -0.782614,   0.335547,   0.104801,  -1.100640, -49.500000, -499.500000, -478.500000,   0.018898,  15.652857,  29.831344,   0.957289,   0.131539,   0.035207,   0.254972, 
20304,  -0.009641,   2.540666,   9.478334, -64.651884,   1.089751,  -0.743691,   0.340050,   0.123809,  -1.103191, -48.000000, -493.500000, -480.000000,   0.029653,  15.007191,  29.827054,   0.958019,   0.126119,   0.033855,   0.255116, 
20305,  -0.025388,   2.412453,   9.501735, -64.643416,   1.071762,  -0.778729,   0.343135,   0.127882,  -1.098400, -46.500000, -492.000000, -478.500000,   0.042650,  14.359823,  29.822636,   0.958733,   0.120678,   0.032517,   0.255253, 
20306,  -0.019724,   2.315335,   9.599088, -64.626244,   1.062561,  -0.830921,   0.344520,   0.137204,  -1.125048, -46.500000, -490.500000, -487.500000,   0.052025,  13.710032,  29.818218,   0.959413,   0.115219,   0.031143,   0.255387, 
20307,  -0.012503,   2.210109,   9.604972, -64.171760,   1.008516,  -0.757251,   0.344474,   0.169430,  -1.129756, -48.000000, -480.000000, -490.500000,   0.061674,  13.065162,  29.813286,   0.960058,   0.109798,   0.029782,   0.255507, 
20308,  -0.034095,   2.157456,   9.683858, -63.837492,   0.945490,  -0.754688,   0.344302,   0.168616,  -1.125219, -48.000000, -480.000000, -489.000000,   0.073186,  12.427697,  29.808602,   0.960671,   0.104432,   0.028452,   0.255620, 
20309,  -0.049952,   1.992050,   9.688348, -63.148936,   1.085712,  -0.857750,   0.340720,   0.164906,  -1.106745, -49.500000, -480.000000, -483.000000,   0.087251,  11.792669,  29.803516,   0.961242,   0.099075,   0.027148,   0.255717, 
20310,  -0.011319,   1.984682,   9.752959, -62.317132,   0.986514,  -0.745914,   0.347421,   0.178301,  -1.101123, -46.500000, -475.500000, -481.500000,   0.097512,  11.169947,  29.798976,   0.961792,   0.093830,   0.025841,   0.255818, 
20311,  -0.027621,   1.919581,   9.840727, -60.609032,   0.902389,  -0.772106,   0.351549,   0.190067,  -1.113904, -45.000000, -472.500000, -486.000000,   0.108008,  10.567939,  29.794110,   0.962270,   0.088752,   0.024581,   0.255897, 
20312,  -0.037174,   1.754871,   9.775037, -59.243504,   0.926232,  -0.713125,   0.346144,   0.199213,  -1.093374, -48.000000, -468.000000, -480.000000,   0.118619,   9.976296,  29.789110,   0.962740,   0.083761,   0.023345,   0.255974, 
20313,  -0.034190,   1.644337,   9.784426, -58.522556,   0.879910,  -0.749520,   0.347032,   0.208898,  -1.096756, -48.000000, -465.000000, -481.500000,   0.129542,   9.389474,  29.784318,   0.963159,   0.078805,   0.022122,   0.256040, 
20314,  -0.055622,   1.552836,   9.780663, -57.611520,   0.957843,  -0.755505,   0.354230,   0.221930,  -1.114399, -45.000000, -462.000000, -487.500000,   0.141346,   8.815530,  29.779524,   0.963555,   0.073955,   0.020936,   0.256099, 
20315,  -0.032493,   1.396719,   9.788990, -57.002072,   0.938859,  -0.714316,   0.353871,   0.217495,  -1.114977, -45.000000, -463.500000, -487.500000,   0.150903,   8.244641,  29.774878,   0.963929,   0.069133,   0.019737,   0.256157, 
20316,  -0.033867,   1.374244,   9.802538, -56.340376,   0.990840,  -0.688698,   0.349371,   0.239132,  -1.088176, -48.000000, -454.500000, -480.000000,   0.161850,   7.684643,  29.770134,   0.964258,   0.064397,   0.018575,   0.256202, 
20317,   0.006176,   1.249958,   9.817508, -55.550444,   0.970963,  -0.741269,   0.347736,   0.255608,  -1.081005, -49.500000, -448.500000, -478.500000,   0.170457,   7.129143,  29.765486,   0.964583,   0.059704,   0.017403,   0.256249, 
20318,  -0.057140,   1.133299,   9.769154, -55.189384,   1.014723,  -0.719108,   0.344667,   0.254342,  -1.076143, -51.000000, -448.500000, -477.000000,   0.180143,   6.577918,  29.760486,   0.964860,   0.055042,   0.016249,   0.256280, 
20319,  -0.054043,   1.170812,   9.927363, -54.212268,   0.834777,  -0.676729,   0.346117,   0.274891,  -1.064181, -51.000000, -441.000000, -474.000000,   0.192934,   6.043295,  29.755212,   0.965120,   0.050512,   0.015158,   0.256302, 
20320,  -0.056499,   1.077969,   9.968004, -52.718548,   0.786896,  -0.669828,   0.356042,   0.287560,  -1.077610, -46.500000, -438.000000, -478.500000,   0.204395,   5.523938,  29.750724,   0.965360,   0.046113,   0.014091,   0.256329, 
20321,  -0.009621,   0.931941,   9.902157, -51.292628,   0.828043,  -0.679497,   0.358084,   0.283939,  -1.055247, -45.000000, -438.000000, -471.000000,   0.207887,   5.014698,  29.745864,   0.965554,   0.041815,   0.012980,   0.256343, 
20322,  -0.037480,   0.802209,   9.815695, -50.571028,   0.871391,  -0.575045,   0.352989,   0.289100,  -1.063096, -48.000000, -436.500000, -474.000000,   0.216151,   4.513058,  29.741202,   0.965745,   0.037569,   0.011925,   0.256357, 
20323,  -0.030824,   0.668107,   9.779655, -50.340060,   0.772746,  -0.626471,   0.345696,   0.299875,  -1.079119, -52.500000, -433.500000, -480.000000,   0.222197,   4.008410,  29.736424,   0.965914,   0.033303,   0.010846,   0.256366, 
20324,  -0.045472,   0.658619,   9.829111, -50.099256,   0.816909,  -0.579519,   0.349482,   0.310011,  -1.082826, -51.000000, -430.500000, -481.500000,   0.230675,   3.511051,  29.732232,   0.966051,   0.029092,   0.009804,   0.256370, 
20325,  -0.026164,   0.554566,   9.813251, -49.720732,   0.878068,  -0.626480,   0.357087,   0.335899,  -1.070934, -48.000000, -421.500000, -478.500000,   0.236043,   3.019931,  29.727716,   0.966186,   0.024940,   0.008749,   0.256373, 
20326,  -0.077470,   0.346810,   9.788530, -49.978956,   0.807211,  -0.682801,   0.356949,   0.340697,  -1.047091, -48.000000, -418.500000, -471.000000,   0.246257,   2.515821,  29.722724,   0.966295,   0.020666,   0.007706,   0.256364, 
20327,  -0.069349,   0.261755,   9.749583, -50.477124,   0.799522,  -0.671020,   0.359130,   0.332278,  -1.048570, -46.500000, -421.500000, -471.000000,   0.254566,   2.002466,  29.717424,   0.966384,   0.016319,   0.006627,   0.256349, 
20328,  -0.042464,   0.252177,   9.757448, -50.983284,   0.863376,  -0.588432,   0.357633,   0.343955,  -1.065241, -48.000000, -418.500000, -477.000000,   0.263304,   1.493066,  29.712782,   0.966471,   0.012004,   0.005561,   0.256339, 
20329,  -0.054080,   0.155761,   9.832837, -51.309364,   0.890930,  -0.565426,   0.350373,   0.360343,  -1.061959, -52.500000, -412.500000, -477.000000,   0.269694,   0.980633,  29.708278,   0.966514,   0.007667,   0.004468,   0.256320, 
20330,  -0.048430,   0.124931,   9.874759, -50.991632,   0.881011,  -0.623022,   0.347663,   0.363512,  -1.056520, -54.000000, -411.000000, -475.500000,   0.277285,   0.474070,  29.703310,   0.966548,   0.003378,   0.003399,   0.256295, 
20331,  -0.046070,   0.066512,   9.859918, -50.219796,   0.862070,  -0.694150,   0.353613,   0.362423,  -1.071358, -51.000000, -412.500000, -480.000000,   0.284233,  -0.020953,  29.698244,   0.966580,  -0.000812,   0.002350,   0.256268, 
20332,  -0.020572,  -0.084298,   9.835283, -49.764004,   0.842535,  -0.636291,   0.363912,   0.382334,  -1.074558, -46.500000, -406.500000, -481.500000,   0.290253,  -0.514349,  29.692934,   0.966563,  -0.004987,   0.001298,   0.256227, 
20333,  -0.055070,  -0.198037,   9.778358, -49.915688,   0.751030,  -0.623148,   0.364816,   0.394826,  -1.068288, -46.500000, -402.000000, -480.000000,   0.296666,  -1.015572,  29.687888,   0.966546,  -0.009229,   0.000231,   0.256189, 
20334,  -0.070022,  -0.362203,   9.714333, -50.202224,   0.807712,  -0.685252,   0.371142,   0.400979,  -1.072896, -43.500000, -400.500000, -481.500000,   0.305541,  -1.524595,  29.682314,   0.966516,  -0.013542,  -0.000830,   0.256144, 
20335,  -0.065057,  -0.340429,   9.822777, -50.677544,   0.895005,  -0.644456,   0.374415,   0.408672,  -1.062990, -42.000000, -397.500000, -478.500000,   0.313813,  -2.030709,  29.676724,   0.966447,  -0.017829,  -0.001891,   0.256088, 
20336,  -0.069409,  -0.353610,   9.858342, -50.407864,   0.861818,  -0.634338,   0.377533,   0.418358,  -1.038894, -40.500000, -393.000000, -471.000000,   0.322112,  -2.526735,  29.671392,   0.966378,  -0.022031,  -0.002928,   0.256036, 
20337,  -0.048441,  -0.509149,   9.843771, -49.968352,   0.822123,  -0.661145,   0.375711,   0.431213,  -1.036837, -42.000000, -388.500000, -471.000000,   0.328721,  -3.022579,  29.665576,   0.966288,  -0.026228,  -0.003979,   0.255974, 
20338,  -0.067223,  -0.636655,   9.846362, -49.618736,   0.771082,  -0.627257,   0.364820,   0.435472,  -1.044039, -48.000000, -387.000000, -474.000000,   0.334998,  -3.522255,  29.659802,   0.966168,  -0.030455,  -0.005041,   0.255905, 
20339,  -0.054416,  -0.669258,   9.802697, -49.311524,   0.860148,  -0.660970,   0.370803,   0.439996,  -1.039572, -45.000000, -385.500000, -472.500000,   0.341055,  -4.014086,  29.654026,   0.966050,  -0.034616,  -0.006086,   0.255836, 
20340,  -0.042064,  -0.789142,   9.805724, -49.239232,   0.930056,  -0.681172,   0.371178,   0.447237,  -1.029342, -45.000000, -382.500000, -469.500000,   0.343909,  -4.507496,  29.648090,   0.965902,  -0.038782,  -0.007162,   0.255758, 
20341,  -0.063643,  -0.852439,   9.747423, -49.258540,   0.820686,  -0.622408,   0.362842,   0.450319,  -1.027792, -49.500000, -381.000000, -469.500000,   0.349642,  -4.998743,  29.642148,   0.965734,  -0.042935,  -0.008207,   0.255675, 
20342,  -0.058685,  -0.936082,   9.732911, -49.652152,   0.869106,  -0.608478,   0.366987,   0.464891,  -1.030921, -48.000000, -376.500000, -471.000000,   0.356439,  -5.492977,  29.636438,   0.965563,  -0.047116,  -0.009251,   0.255595, 
20343,  -0.061935,  -1.069839,   9.708993, -50.044132,   0.885792,  -0.614433,   0.363576,   0.461996,  -1.016985, -49.500000, -376.500000, -466.500000,   0.361129,  -5.994239,  29.630796,   0.965352,  -0.051350,  -0.010326,   0.255505, 
20344,  -0.066155,  -1.124519,   9.710891, -50.553940,   0.853250,  -0.636100,   0.358122,   0.462722,  -1.025412, -52.500000, -376.500000, -469.500000,   0.366536,  -6.499581,  29.624730,   0.965126,  -0.055619,  -0.011404,   0.255407, 
20345,  -0.085008,  -1.188494,   9.728676, -50.701016,   0.839781,  -0.630223,   0.365898,   0.489424,  -1.018057, -49.500000, -367.500000, -468.000000,   0.375926,  -7.003561,  29.618508,   0.964900,  -0.059886,  -0.012446,   0.255311, 
20346,  -0.081618,  -1.274684,   9.780313, -50.485816,   0.809057,  -0.549105,   0.372257,   0.501190,  -1.003360, -46.500000, -363.000000, -463.500000,   0.385370,  -7.506121,  29.612540,   0.964625,  -0.064137,  -0.013482,   0.255205, 
20347,  -0.047559,  -1.364087,   9.728309, -50.174112,   0.870465,  -0.577458,   0.361194,   0.504634,  -1.006024, -52.500000, -361.500000, -465.000000,   0.391712,  -8.004753,  29.606992,   0.964349,  -0.068349,  -0.014536,   0.255101, 
20348,  -0.052896,  -1.391232,   9.789889, -50.047348,   0.852245,  -0.604428,   0.361243,   0.513053,  -0.977067, -52.500000, -357.000000, -456.000000,   0.397779,  -8.499069,  29.601084,   0.964070,  -0.072524,  -0.015582,   0.254994, 
20349,  -0.055947,  -1.498100,   9.782713, -49.075760,   0.788959,  -0.559070,   0.373023,   0.518480,  -0.973248, -46.500000, -355.500000, -454.500000,   0.403814,  -8.985683,  29.595126,   0.963751,  -0.076630,  -0.016609,   0.254875, 
20350,  -0.050927,  -1.543549,   9.707768, -48.587932,   0.804308,  -0.624014,   0.375329,   0.543101,  -0.983972, -46.500000, -348.000000, -459.000000,   0.409305,  -9.463912,  29.589408,   0.963437,  -0.080665,  -0.017623,   0.254760, 
20351,  -0.077851,  -1.689045,   9.693237, -48.319752,   0.818735,  -0.581157,   0.377918,   0.547537,  -0.955917, -45.000000, -345.000000, -450.000000,   0.414512,  -9.945581,  29.583518,   0.963111,  -0.084727,  -0.018645,   0.254641, 
20352,  -0.051959,  -1.750946,   9.698768, -47.850132,   0.731436,  -0.625884,   0.374131,   0.537400,  -0.952210, -46.500000, -348.000000, -448.500000,   0.418630, -10.422956,  29.577816,   0.962749,  -0.088747,  -0.019667,   0.254513, 
20353,  -0.078405,  -1.776807,   9.716256, -47.358140,   0.792576,  -0.625180,   0.372072,   0.538214,  -0.984226, -48.000000, -349.500000, -459.000000,   0.424028, -10.888273,  29.572134,   0.962396,  -0.092669,  -0.020650,   0.254388, 
20354,  -0.088013,  -1.894968,   9.687776, -46.698556,   0.817681,  -0.637774,   0.379081,   0.547625,  -1.006984, -45.000000, -348.000000, -466.500000,   0.431892, -11.350065,  29.566224,   0.962035,  -0.096567,  -0.021604,   0.254262, 
20355,  -0.095226,  -1.991986,   9.654083, -46.076828,   0.695039,  -0.566381,   0.380720,   0.571795,  -0.989907, -45.000000, -339.000000, -462.000000,   0.439869, -11.806086,  29.560534,   0.961641,  -0.100412,  -0.022544,   0.254130, 
20356,  -0.082463,  -2.016643,   9.645245, -45.703112,   0.762465,  -0.549462,   0.369177,   0.578408,  -0.959653, -51.000000, -334.500000, -453.000000,   0.445710, -12.255549,  29.554934,   0.961254,  -0.104197,  -0.023486,   0.253999, 
20357,  -0.091800,  -2.114044,   9.609698, -45.196744,   0.734639,  -0.544379,   0.367338,   0.588457,  -0.967249, -52.500000, -331.500000, -456.000000,   0.450608, -12.701280,  29.549146,   0.960865,  -0.107949,  -0.024428,   0.253865, 
20358,  -0.101111,  -2.247402,   9.525735, -44.929884,   0.796181,  -0.566454,   0.376203,   0.590626,  -0.972759, -48.000000, -331.500000, -457.500000,   0.456975, -13.151555,  29.543434,   0.960431,  -0.111737,  -0.025366,   0.253721, 
20359,  -0.077937,  -2.261731,   9.554226, -44.972688,   0.805041,  -0.592877,   0.377716,   0.581755,  -0.946435, -46.500000, -333.000000, -448.500000,   0.463222, -13.596323,  29.537588,   0.960001,  -0.115479,  -0.026292,   0.253578, 
20360,  -0.062123,  -2.391671,   9.484614, -44.750716,   0.671008,  -0.610219,   0.378075,   0.586190,  -0.945858, -46.500000, -331.500000, -448.500000,   0.465307, -14.042602,  29.531622,   0.959572,  -0.119225,  -0.027256,   0.253430, 
20361,  -0.069147,  -2.490296,   9.466791, -45.289960,   0.850192,  -0.604273,   0.373696,   0.600223,  -0.952552, -49.500000, -327.000000, -451.500000,   0.464693, -14.497133,  29.525528,   0.959091,  -0.123029,  -0.028260,   0.253265, 
20362,  -0.077854,  -2.578251,   9.435388, -45.668952,   0.744640,  -0.540700,   0.380755,   0.618053,  -0.946353, -46.500000, -321.000000, -450.000000,   0.469166, -14.956127,  29.519316,   0.958601,  -0.126880,  -0.029230,   0.253102, 
20363,  -0.115253,  -2.661931,   9.391970, -46.106592,   0.763017,  -0.623521,   0.381114,   0.622489,  -0.945775, -46.500000, -319.500000, -450.000000,   0.477701, -15.419677,  29.513040,   0.958104,  -0.130779,  -0.030175,   0.252942, 
20364,  -0.077857,  -2.689359,   9.441803, -46.543988,   0.826496,  -0.583697,   0.366469,   0.622223,  -0.929965, -54.000000, -318.000000, -445.500000,   0.482352, -15.883469,  29.506694,   0.957567,  -0.134666,  -0.031152,   0.252767, 
20365,  -0.073352,  -2.734902,   9.454199, -46.312452,   0.799463,  -0.546815,   0.374854,   0.627562,  -0.902557, -49.500000, -315.000000, -436.500000,   0.486625, -16.340683,  29.500736,   0.957031,  -0.138497,  -0.032117,   0.252595, 
20366,  -0.090539,  -2.822272,   9.443977, -45.916696,   0.869569,  -0.576022,   0.380105,   0.620408,  -0.908898, -46.500000, -318.000000, -438.000000,   0.492194, -16.795310,  29.494596,   0.956498,  -0.142308,  -0.033065,   0.252425, 
20367,  -0.092464,  -2.875386,   9.410289, -45.651472,   0.771157,  -0.566145,   0.376222,   0.634078,  -0.938857, -49.500000, -315.000000, -448.500000,   0.498443, -17.247256,  29.488664,   0.955930,  -0.146093,  -0.034000,   0.252248, 
20368,  -0.115380,  -2.969696,   9.331561, -45.444616,   0.850804,  -0.553748,   0.376427,   0.640505,  -0.924090, -49.500000, -312.000000, -444.000000,   0.505691, -17.698566,  29.482512,   0.955354,  -0.149874,  -0.034925,   0.252069, 
20369,  -0.089549,  -3.122745,   9.273815, -45.651476,   0.771157,  -0.566145,   0.376631,   0.646933,  -0.909322, -49.500000, -309.000000, -439.500000,   0.509443, -18.160562,  29.476116,   0.954766,  -0.153737,  -0.035902,   0.251881, 
20370,  -0.098711,  -3.118064,   9.318601, -45.763380,   0.753925,  -0.506763,   0.380433,   0.659876,  -0.903376, -48.000000, -304.500000, -438.000000,   0.513714, -18.616216,  29.470094,   0.954151,  -0.157542,  -0.036859,   0.251690, 
20371,  -0.092344,  -3.190121,   9.284960, -45.797700,   0.753914,  -0.524548,   0.381525,   0.675989,  -0.891991, -48.000000, -298.500000, -435.000000,   0.518605, -19.070098,  29.464058,   0.953526,  -0.161332,  -0.037806,   0.251497, 
20372,  -0.098820,  -3.347734,   9.209264, -46.106844,   0.754652,  -0.519237,   0.378472,   0.677530,  -0.877477, -49.500000, -297.000000, -430.500000,   0.519302, -19.535362,  29.457518,   0.952888,  -0.165207,  -0.038812,   0.251291, 
20373,  -0.096386,  -3.360700,   9.185666, -46.381180,   0.790544,  -0.582542,   0.377055,   0.662594,  -0.870135, -49.500000, -301.500000, -427.500000,   0.524184, -20.000908,  29.451390,   0.952214,  -0.169089,  -0.039783,   0.251086, 
20374,  -0.118355,  -3.429177,   9.194899, -46.647396,   0.782025,  -0.629141,   0.377943,   0.672280,  -0.873517, -49.500000, -298.500000, -429.000000,   0.530550, -20.464750,  29.444886,   0.951527,  -0.172957,  -0.040736,   0.250877, 
20375,  -0.102599,  -3.541453,   9.159531, -46.561496,   0.790905,  -0.593225,   0.379002,   0.682780,  -0.881437, -49.500000, -295.500000, -432.000000,   0.537691, -20.931060,  29.438182,   0.950837,  -0.176848,  -0.041687,   0.250667, 
20376,  -0.095495,  -3.569231,   9.146580, -46.862412,   0.746878,  -0.640837,   0.379002,   0.682780,  -0.881437, -49.500000, -295.500000, -432.000000,   0.540305, -21.397366,  29.431476,   0.950118,  -0.180723,  -0.042674,   0.250442, 
20377,  -0.105394,  -3.648924,   9.123436, -46.835756,   0.844900,  -0.595287,   0.382837,   0.701336,  -0.856186, -48.000000, -288.000000, -424.500000,   0.546583, -21.864300,  29.424346,   0.949381,  -0.184608,  -0.043631,   0.250216, 
20378,  -0.105625,  -3.685579,   9.132852, -46.570200,   0.782117,  -0.576071,   0.386094,   0.706223,  -0.855932, -46.500000, -286.500000, -424.500000,   0.552892, -22.324798,  29.417822,   0.948652,  -0.188439,  -0.044573,   0.249997, 
20379,  -0.087882,  -3.622660,   9.261091, -45.453856,   0.770359,  -0.633606,   0.385206,   0.696538,  -0.852550, -46.500000, -289.500000, -423.000000,   0.559403, -22.760582,  29.411432,   0.947936,  -0.192062,  -0.045459,   0.249783, 
20380,  -0.098883,  -3.685208,   9.236180, -43.229816,   0.774526,  -0.556813,   0.385752,   0.704594,  -0.846858, -46.500000, -286.500000, -421.500000,   0.564796, -23.168866,  29.405392,   0.947249,  -0.195451,  -0.046293,   0.249577, 
20381,  -0.107028,  -3.830377,   9.145726, -41.495568,   0.753325,  -0.442352,   0.377775,   0.712111,  -0.844731, -51.000000, -283.500000, -421.500000,   0.571100, -23.570102,  29.399802,   0.946572,  -0.198783,  -0.047105,   0.249379, 
20382,  -0.094690,  -3.926643,   9.088506, -40.275940,   0.777231,  -0.437195,   0.372867,   0.720893,  -0.847465, -54.000000, -280.500000, -423.000000,   0.575818, -23.963786,  29.394522,   0.945903,  -0.202048,  -0.047914,   0.249183, 
20383,  -0.133639,  -3.922355,   9.092350, -38.369872,   0.737055,  -0.477831,   0.388995,   0.747320,  -0.832008, -46.500000, -271.500000, -418.500000,   0.585996, -24.331492,  29.388946,   0.945244,  -0.205104,  -0.048619,   0.248996, 
20384,  -0.096882,  -4.075941,   8.910879, -37.627512,   0.652576,  -0.427639,   0.387610,   0.737998,  -0.805360, -46.500000, -273.000000, -409.500000,   0.588538, -24.701220,  29.383864,   0.944584,  -0.208160,  -0.049392,   0.248800, 
20385,  -0.128369,  -4.165361,   8.833733, -37.460304,   0.663708,  -0.495223,   0.380381,   0.719353,  -0.807022, -49.500000, -279.000000, -409.500000,   0.593767, -25.075772,  29.378600,   0.943915,  -0.211261,  -0.050152,   0.248605, 
20386,  -0.108007,  -4.284173,   8.772687, -37.917788,   0.621360,  -0.477808,   0.384900,   0.741167,  -0.799921, -48.000000, -271.500000, -408.000000,   0.595593, -25.460448,  29.373414,   0.943214,  -0.214436,  -0.050962,   0.248397, 
20387,  -0.086787,  -4.355550,   8.693453, -38.920560,   0.640918,  -0.389873,   0.388874,   0.754925,  -0.798513, -46.500000, -267.000000, -408.000000,   0.595163, -25.859562,  29.368058,   0.942462,  -0.217719,  -0.051819,   0.248171, 
20388,  -0.106046,  -4.415809,   8.656153, -40.023660,   0.705051,  -0.522727,   0.385242,   0.742796,  -0.808996, -48.000000, -271.500000, -411.000000,   0.596749, -26.268536,  29.362330,   0.941692,  -0.221087,  -0.052681,   0.247940, 
20389,  -0.099349,  -4.519663,   8.631281, -41.170308,   0.636631,  -0.501763,   0.383420,   0.755651,  -0.806940, -49.500000, -267.000000, -411.000000,   0.598004, -26.693342,  29.356468,   0.940892,  -0.224585,  -0.053579,   0.247701, 
20390,  -0.075216,  -4.497951,   8.696197, -41.854840,   0.788439,  -0.502739,   0.383452,   0.761264,  -0.787635, -49.500000, -264.000000, -405.000000,   0.597231, -27.115344,  29.350082,   0.940059,  -0.228047,  -0.054483,   0.247445, 
20391,  -0.105012,  -4.536263,   8.673128, -42.320276,   0.710430,  -0.504417,   0.385992,   0.757280,  -0.788536, -48.000000, -265.500000, -405.000000,   0.599093, -27.537388,  29.343808,   0.939222,  -0.231514,  -0.055366,   0.247194, 
20392,  -0.095773,  -4.697168,   8.532761, -42.824196,   0.782394,  -0.575413,   0.380009,   0.752756,  -0.793003, -51.000000, -267.000000, -406.500000,   0.598062, -27.974694,  29.337536,   0.938356,  -0.235100,  -0.056305,   0.246930, 
20393,  -0.119250,  -4.740414,   8.535965, -43.856656,   0.775890,  -0.572398,   0.379699,   0.756740,  -0.764623, -51.000000, -264.000000, -397.500000,   0.600805, -28.424550,  29.330360,   0.937435,  -0.238790,  -0.057236,   0.246653, 
20394,  -0.104688,  -4.776965,   8.527917, -44.541648,   0.786408,  -0.563318,   0.382380,   0.788603,  -0.765118, -51.000000, -253.500000, -399.000000,   0.603370, -28.875360,  29.323604,   0.936495,  -0.242484,  -0.058171,   0.246374, 
20395,  -0.080188,  -4.829816,   8.542686, -45.067820,   0.733995,  -0.612593,   0.376038,   0.779644,  -0.770162, -54.000000, -256.500000, -400.500000,   0.602290, -29.327070,  29.316882,   0.935556,  -0.246176,  -0.059136,   0.246088, 
20396,  -0.093241,  -4.859938,   8.492274, -45.297736,   0.740541,  -0.595670,   0.377301,   0.796571,  -0.763315, -54.000000, -250.500000, -399.000000,   0.603236, -29.778182,  29.309712,   0.934592,  -0.249863,  -0.060081,   0.245796, 
20397,  -0.093585,  -4.986107,   8.406743, -45.710708,   0.860254,  -0.565215,   0.371521,   0.798475,  -0.753014, -57.000000, -249.000000, -396.000000,   0.605798, -30.238716,  29.302592,   0.933587,  -0.253624,  -0.061031,   0.245499, 
20398,  -0.125578,  -5.117312,   8.274153, -46.724844,   0.783718,  -0.525529,   0.381696,   0.785345,  -0.746968, -51.000000, -253.500000, -393.000000,   0.608453, -30.718890,  29.295090,   0.932538,  -0.257546,  -0.062022,   0.245188, 
20399,  -0.104889,  -5.156686,   8.323329, -47.789100,   0.829292,  -0.597364,   0.390765,   0.793942,  -0.737710, -46.500000, -250.500000, -390.000000,   0.607647, -31.205442,  29.287658,   0.931451,  -0.261505,  -0.063052,   0.244859, 
20400,  -0.122961,  -5.219249,   8.286169, -48.563904,   0.827152,  -0.591433,   0.389643,   0.812861,  -0.744151, -48.000000, -244.500000, -393.000000,   0.609498, -31.697092,  29.280582,   0.930327,  -0.265505,  -0.064070,   0.244532, 
20401,  -0.077084,  -5.237143,   8.311086, -49.051700,   0.814733,  -0.533205,   0.393274,   0.824990,  -0.733668, -46.500000, -240.000000, -390.000000,   0.608031, -32.188846,  29.273368,   0.929206,  -0.269498,  -0.065114,   0.244195, 
20402,  -0.102988,  -5.270808,   8.286806, -49.197036,   0.859930,  -0.651977,   0.395863,   0.829426,  -0.705611, -45.000000, -237.000000, -381.000000,   0.611259, -32.674064,  29.265634,   0.928065,  -0.273440,  -0.066103,   0.243861, 
20403,  -0.114367,  -5.408042,   8.138365, -49.248896,   0.823408,  -0.665768,   0.392110,   0.824902,  -0.682600, -46.500000, -237.000000, -373.500000,   0.613653, -33.169082,  29.257394,   0.926886,  -0.277455,  -0.067116,   0.243511, 
20404,  -0.126753,  -5.502513,   8.087650, -50.013320,   0.901146,  -0.691181,   0.385768,   0.815942,  -0.687644, -49.500000, -240.000000, -375.000000,   0.617343, -33.677340,  29.249042,   0.925675,  -0.281580,  -0.068146,   0.243156, 
20405,  -0.153250,  -5.572028,   8.065373, -50.571092,   0.871568,  -0.540231,   0.380160,   0.818660,  -0.681882, -52.500000, -238.500000, -373.500000,   0.623699, -34.186928,  29.241062,   0.924414,  -0.285708,  -0.069154,   0.242799, 
20406,  -0.130375,  -5.609600,   8.058698, -50.746944,   0.832133,  -0.599921,   0.381765,   0.837217,  -0.684109, -52.500000, -232.500000, -375.000000,   0.627723, -34.697332,  29.233478,   0.923145,  -0.289836,  -0.070183,   0.242437, 
20407,  -0.094715,  -5.573529,   8.108301, -50.691268,   0.853381,  -0.672422,   0.397501,   0.853595,  -0.688534, -45.000000, -228.000000, -376.500000,   0.628189, -35.194164,  29.498854,   0.921340,  -0.293678,  -0.071912,   0.244272, 
20408,  -0.101398,  -5.638681,   8.097715, -49.601572,   0.868943,  -0.617593,   0.400758,   0.858482,  -0.688280, -43.500000, -226.500000, -376.500000,   0.632320, -35.673244,  29.770668,   0.919497,  -0.297355,  -0.073603,   0.246156, 
20409,  -0.130648,  -5.810661,   7.959740, -49.000500,   0.778944,  -0.550683,   0.395508,   0.865636,  -0.681940, -46.500000, -223.500000, -375.000000,   0.638032, -36.159648,  30.042614,   0.917632,  -0.301088,  -0.075316,   0.248033, 
20410,  -0.092314,  -5.851510,   7.916326, -48.828072,   0.840610,  -0.591203,   0.390633,   0.880031,  -0.665370, -49.500000, -217.500000, -370.500000,   0.639232, -36.644088,  30.300964,   0.915798,  -0.304798,  -0.077043,   0.249783, 
20411,  -0.117538,  -5.933981,   7.831098, -48.930560,   0.894130,  -0.608787,   0.375442,   0.871709,  -0.655252, -57.000000, -219.000000, -367.500000,   0.640694, -37.130676,  30.543254,   0.913956,  -0.308518,  -0.078742,   0.251388, 
20412,  -0.084119,  -6.072150,   7.700236, -49.600452,   0.877621,  -0.659975,   0.377469,   0.865282,  -0.642541, -55.500000, -220.500000, -363.000000,   0.639191, -37.634980,  30.784010,   0.912072,  -0.312369,  -0.080517,   0.252955, 
20413,  -0.114797,  -6.134578,   7.652752, -50.477396,   0.782039,  -0.610413,   0.386693,   0.871886,  -0.647473, -51.000000, -219.000000, -364.500000,   0.640377, -38.148192,  31.033616,   0.910118,  -0.316277,  -0.082330,   0.254580, 
20414,  -0.133447,  -6.176986,   7.618944, -51.069448,   0.836969,  -0.572444,   0.380538,   0.866548,  -0.647403, -54.000000, -220.500000, -364.500000,   0.642012, -38.662864,  31.289188,   0.908099,  -0.320172,  -0.084172,   0.256233, 
20415,  -0.123431,  -6.188304,   7.644978, -51.601256,   0.882203,  -0.664529,   0.381100,   0.877411,  -0.632058, -54.000000, -216.000000, -360.000000,   0.644415, -39.175732,  31.538016,   0.906103,  -0.324054,  -0.086003,   0.257830, 
20416,  -0.117013,  -6.217885,   7.649728, -51.215656,   0.810519,  -0.591931,   0.384920,   0.893161,  -0.616459, -52.500000, -210.000000, -355.500000,   0.646720, -39.677904,  31.775866,   0.904132,  -0.327844,  -0.087795,   0.259334, 
20417,  -0.125492,  -6.289233,   7.585879, -50.622264,   0.888945,  -0.644921,   0.387101,   0.884741,  -0.617938, -51.000000, -213.000000, -355.500000,   0.650105, -40.173276,  32.015354,   0.902160,  -0.331570,  -0.089581,   0.260848, 
20418,  -0.103053,  -6.400910,   7.530493, -49.978924,   0.816284,  -0.647828,   0.384390,   0.887911,  -0.612499, -52.500000, -211.500000, -354.000000,   0.654740, -40.665848,  32.007248,   0.900752,  -0.335466,  -0.090643,   0.260413, 
20419,  -0.140569,  -6.444289,   7.424546, -49.626984,   0.806730,  -0.618012,   0.387851,   0.899225,  -0.597478, -51.000000, -207.000000, -349.500000,   0.660293, -41.155584,  32.249340,   0.898753,  -0.339130,  -0.092428,   0.261939, 
20420,  -0.128677,  -6.493316,   7.388010, -49.326144,   0.841817,  -0.579262,   0.393817,   0.900943,  -0.602664, -48.000000, -207.000000, -351.000000,   0.663089, -41.641100,  32.496560,   0.896734,  -0.342737,  -0.094254,   0.263487, 
20421,  -0.115663,  -6.600756,   7.300100, -49.540968,   0.815257,  -0.651724,   0.395298,   0.886459,  -0.595645, -46.500000, -211.500000, -348.000000,   0.664126, -42.133724,  32.758076,   0.894655,  -0.346375,  -0.096169,   0.265127, 
20422,  -0.123437,  -6.676192,   7.207335, -49.712292,   0.869330,  -0.591730,   0.393321,   0.901306,  -0.579399, -48.000000, -205.500000, -343.500000,   0.666045, -42.632304,  33.017318,   0.892522,  -0.350042,  -0.098097,   0.266727, 
20423,  -0.113370,  -6.766498,   7.128265, -49.961492,   0.852097,  -0.594782,   0.391686,   0.917782,  -0.572227, -49.500000, -199.500000, -342.000000,   0.668215, -43.136412,  33.263626,   0.890398,  -0.353756,  -0.100013,   0.268214, 
20424,  -0.107542,  -6.781923,   7.147775, -50.124828,   0.834715,  -0.588187,   0.391702,   0.920588,  -0.562575, -49.500000, -198.000000, -339.000000,   0.669401, -43.634988,  33.501762,   0.888309,  -0.357426,  -0.101915,   0.269632, 
20425,  -0.118603,  -6.819476,   7.029043, -50.554720,   0.782346,  -0.585150,   0.389180,   0.927379,  -0.552021, -51.000000, -195.000000, -336.000000,   0.669511, -44.136672,  33.734876,   0.886181,  -0.361099,  -0.103828,   0.270986, 
20426,  -0.114714,  -6.954649,   6.939275, -50.863264,   0.845402,  -0.570023,   0.380160,   0.927202,  -0.532321, -55.500000, -193.500000, -330.000000,   0.669900, -44.652668,  33.957912,   0.884013,  -0.364880,  -0.105754,   0.272236, 
20427,  -0.124982,  -6.984713,   6.922064, -51.524100,   0.882428,  -0.585348,   0.379255,   0.914710,  -0.538591, -55.500000, -198.000000, -331.500000,   0.670819, -45.171388,  34.062272,   0.882106,  -0.368784,  -0.107315,   0.272562, 
20428,  -0.108841,  -6.998357,   6.915093, -51.532360,   0.899753,  -0.680864,   0.385051,   0.915613,  -0.539239, -52.500000, -198.000000, -331.500000,   0.672182, -45.679352,  34.177100,   0.880176,  -0.372579,  -0.108883,   0.272966, 
20429,  -0.139556,  -7.070822,   6.864060, -51.352068,   0.908642,  -0.600393,   0.377091,   0.925936,  -0.527460, -57.000000, -193.500000, -328.500000,   0.678246, -46.183956,  34.405620,   0.877981,  -0.376248,  -0.110789,   0.274257, 
20430,  -0.109591,  -7.125191,   6.799919, -50.889184,   0.818417,  -0.640412,   0.371141,   0.927025,  -0.512622, -60.000000, -192.000000, -324.000000,   0.680385, -46.686532,  34.512616,   0.876062,  -0.379994,  -0.112329,   0.274593, 
20431,  -0.147963,  -7.148628,   6.776010, -50.339660,   0.798992,  -0.713030,   0.377157,   0.937162,  -0.488850, -57.000000, -187.500000, -316.500000,   0.683919, -47.179232,  34.504316,   0.874430,  -0.383772,  -0.113453,   0.274054, 
20432,  -0.103128,  -7.242610,   6.690706, -49.876152,   0.789409,  -0.638470,   0.382969,   0.940871,  -0.479845, -54.000000, -186.000000, -313.500000,   0.686554, -47.668588,  34.496316,   0.872810,  -0.387521,  -0.114576,   0.273518, 
20433,  -0.114913,  -7.311465,   6.563686, -49.429504,   0.806331,  -0.607140,   0.383687,   0.949742,  -0.478690, -54.000000, -183.000000, -313.500000,   0.687288, -48.159160,  34.599432,   0.870891,  -0.391149,  -0.116092,   0.273810, 
20434,  -0.123410,  -7.378105,   6.509282, -49.360416,   0.841629,  -0.631861,   0.379730,   0.938791,  -0.470446, -55.500000, -186.000000, -310.500000,   0.688708, -48.648628,  34.702896,   0.868961,  -0.394761,  -0.117606,   0.274100, 
20435,  -0.121110,  -7.455989,   6.439607, -49.214592,   0.823464,  -0.639280,   0.381723,   0.926750,  -0.477040, -54.000000, -190.500000, -312.000000,   0.689362, -49.139152,  34.694880,   0.867294,  -0.398493,  -0.118747,   0.273540, 
20436,  -0.131022,  -7.491211,   6.335051, -49.609584,   0.815145,  -0.704700,   0.379901,   0.939605,  -0.474984, -55.500000, -186.000000, -312.000000,   0.688749, -49.636648,  34.686584,   0.865566,  -0.402257,  -0.119907,   0.272954, 
20437,  -0.128891,  -7.616380,   6.202389, -50.182916,   0.751866,  -0.579662,   0.380137,   0.951646,  -0.440911, -55.500000, -180.000000, -301.500000,   0.685384, -50.146700,  34.678440,   0.863788,  -0.406106,  -0.121118,   0.272344, 
20438,  -0.135370,  -7.711782,   6.109425, -51.215384,   0.828002,  -0.652538,   0.381742,   0.970202,  -0.443139, -55.500000, -174.000000, -303.000000,   0.686014, -50.672468,  34.670424,   0.861947,  -0.410081,  -0.122334,   0.271731, 
20439,  -0.139599,  -7.770453,   6.032762, -52.236020,   0.764188,  -0.640741,   0.383548,   0.954541,  -0.454848, -54.000000, -180.000000, -306.000000,   0.685384, -51.209628,  34.662044,   0.860022,  -0.414118,  -0.123579,   0.271085, 
20440,  -0.143634,  -7.792475,   5.985373, -53.301764,   0.850215,  -0.727345,   0.385575,   0.948113,  -0.442137, -52.500000, -181.500000, -301.500000,   0.686323, -51.751528,  34.653540,   0.858078,  -0.418194,  -0.124822,   0.270439, 
20441,  -0.123623,  -7.892640,   5.889586, -54.303544,   0.855386,  -0.746992,   0.383085,   0.960517,  -0.412278, -54.000000, -175.500000, -292.500000,   0.683247, -52.308252,  34.644688,   0.856061,  -0.422360,  -0.126125,   0.269752, 
20442,  -0.121452,  -7.925820,   5.826103, -55.466024,   0.810239,  -0.821521,   0.374049,   0.957533,  -0.402231, -58.500000, -175.500000, -289.500000,   0.680893, -52.874512,  34.634972,   0.853983,  -0.426588,  -0.127437,   0.269043, 
20443,  -0.058194,  -7.929634,   5.867490, -57.127080,   0.933056,  -0.745774,   0.377289,   0.959614,  -0.411629, -57.000000, -175.500000, -292.500000,   0.674068, -53.442820,  34.625228,   0.851903,  -0.430821,  -0.128786,   0.268314, 
20444,  -0.121635,  -7.951841,   5.837297, -57.664016,   0.878469,  -0.644355,   0.387092,   0.979888,  -0.391564, -52.500000, -168.000000, -286.500000,   0.672306, -54.008116,  34.616140,   0.849776,  -0.435017,  -0.130085,   0.267597, 
20445,  -0.151633,  -8.064345,   5.635882, -57.920120,   1.013955,  -0.745337,   0.393809,   0.996089,  -0.376290, -49.500000, -162.000000, -282.000000,   0.675444, -54.592712,  34.606800,   0.847569,  -0.439367,  -0.131390,   0.266874, 
20446,  -0.093298,  -8.049764,   5.682819, -58.014568,   1.012083,  -0.767684,   0.384431,   0.991477,  -0.357168, -54.000000, -162.000000, -276.000000,   0.674407, -55.167076,  34.596716,   0.845379,  -0.443618,  -0.132694,   0.266133, 
20447,  -0.091573,  -8.108146,   5.615317, -58.050044,   0.998432,  -0.747044,   0.377200,   0.972832,  -0.358830, -57.000000, -168.000000, -276.000000,   0.670771, -55.738864,  34.586784,   0.843179,  -0.447833,  -0.134008,   0.265380, 
20448,  -0.152400,  -8.125491,   5.541276, -57.379480,   0.984233,  -0.708965,   0.379569,   0.968033,  -0.355194, -55.500000, -169.500000, -274.500000,   0.677998, -56.301984,  34.577116,   0.840994,  -0.452005,  -0.135221,   0.264679, 
20449,  -0.081777,  -8.248041,   5.402835, -57.142612,   0.909485,  -0.723156,   0.380849,   0.987767,  -0.338694, -55.500000, -162.000000, -270.000000,   0.676086, -56.869480,  34.567780,   0.838756,  -0.456164,  -0.136505,   0.263926, 
20450,  -0.129524,  -8.355500,   5.246208, -58.032484,   0.950246,  -0.690654,   0.375566,   0.989308,  -0.351658, -58.500000, -162.000000, -274.500000,   0.672965, -57.452316,  34.558312,   0.836458,  -0.460433,  -0.137832,   0.263149, 
20451,  -0.134586,  -8.363462,   5.161052, -58.722040,   0.968270,  -0.762719,   0.369256,   0.985961,  -0.337398, -61.500000, -162.000000, -270.000000,   0.674410, -58.044132,  34.548416,   0.834085,  -0.464759,  -0.139137,   0.262366, 
20452,  -0.098119,  -8.313070,   5.241160, -58.375632,   0.977485,  -0.737465,   0.374402,   0.989219,  -0.300591, -58.500000, -159.000000, -258.000000,   0.674424, -58.613352,  34.538740,   0.831787,  -0.468908,  -0.140399,   0.261601, 
20453,  -0.124017,  -8.382409,   5.157969, -57.730732,   0.871266,  -0.730314,   0.379155,   0.982429,  -0.283666, -55.500000, -160.500000, -252.000000,   0.674613, -59.172460,  34.529544,   0.829519,  -0.472977,  -0.141636,   0.260850, 
20454,  -0.112238,  -8.567034,   4.880882, -57.422528,   0.966360,  -0.744569,   0.382395,   0.984509,  -0.293065, -54.000000, -160.500000, -255.000000,   0.672586, -59.751300,  34.520508,   0.827131,  -0.477162,  -0.142927,   0.260054, 
20455,  -0.106598,  -8.686314,   4.714088, -58.897644,   0.968822,  -0.733700,   0.380589,   1.000170,  -0.281356, -55.500000, -154.500000, -252.000000,   0.669956, -60.354648,  34.510428,   0.824645,  -0.481524,  -0.144273,   0.259218, 
20456,  -0.117957,  -8.702512,   4.658254, -61.089760,   0.921350,  -0.759659,   0.377178,   0.997276,  -0.267420, -57.000000, -154.500000, -247.500000,   0.661045, -60.979556,  34.500452,   0.822031,  -0.486001,  -0.145704,   0.258315, 
20457,  -0.148175,  -8.738342,   4.536957, -62.866860,   0.978051,  -0.715374,   0.379342,   0.986050,  -0.278551, -55.500000, -159.000000, -250.500000,   0.659548, -61.621200,  34.490032,   0.819328,  -0.490609,  -0.147115,   0.257416, 
20458,  -0.107589,  -8.822175,   4.475889, -64.368736,   1.053131,  -0.819549,   0.379017,   0.987227,  -0.259824, -55.500000, -157.500000, -244.500000,   0.655751, -62.276368,  34.479880,   0.816534,  -0.495288,  -0.148567,   0.256481, 
20459,  -0.132239,  -8.798175,   4.476706, -65.888052,   1.110773,  -0.862338,   0.377991,   0.982340,  -0.232599, -55.500000, -157.500000, -235.500000,   0.653849, -62.934588,  34.469332,   0.813703,  -0.499981,  -0.150006,   0.255541, 
20460,  -0.129295,  -8.824837,   4.365954, -66.481276,   1.049156,  -0.808080,   0.371869,   0.982615,  -0.213223, -58.500000, -156.000000, -229.500000,   0.652990, -63.599020,  34.458488,   0.810816,  -0.504703,  -0.151443,   0.254586, 
20461,  -0.145344,  -8.912292,   4.293447, -66.544504,   1.112326,  -0.854070,   0.366807,   0.993389,  -0.201768, -61.500000, -151.500000, -226.500000,   0.653708, -64.260848,  34.447544,   0.807908,  -0.509392,  -0.152857,   0.253633, 
20462,  -0.073375,  -8.940554,   4.186883, -66.780928,   1.138749,  -0.818493,   0.370064,   0.998276,  -0.201514, -60.000000, -150.000000, -226.500000,   0.648917, -64.923516,  34.436484,   0.804985,  -0.514063,  -0.154306,   0.252647, 
20463,  -0.131339,  -8.971498,   4.112069, -67.064536,   1.121770,  -0.787107,   0.363396,   0.990494,  -0.187831, -63.000000, -151.500000, -222.000000,   0.648724, -65.586700,  34.425624,   0.802015,  -0.518724,  -0.155717,   0.251671, 
20464,  -0.094449,  -8.999220,   4.003145, -67.194016,   1.032477,  -0.911961,   0.363600,   0.996922,  -0.173064, -63.000000, -148.500000, -217.500000,   0.646837, -66.253212,  34.414448,   0.799019,  -0.523397,  -0.157142,   0.250677, 
20465,  -0.127981,  -9.083980,   3.896607, -67.374024,   1.086880,  -0.791136,   0.369600,   1.004252,  -0.158944, -60.000000, -145.500000, -213.000000,   0.644183, -66.920256,  34.403404,   0.795978,  -0.528043,  -0.158564,   0.249666, 
20466,  -0.102893,  -9.113343,   3.743922, -67.812032,   1.069760,  -0.857186,   0.375738,   1.006784,  -0.168667, -57.000000, -145.500000, -216.000000,   0.641456, -67.596512,  34.392912,   0.792886,  -0.532747,  -0.160007,   0.248644, 
20467,  -0.125858,  -9.124536,   3.774431, -67.881032,   1.043359,  -0.832306,   0.369241,   0.999817,  -0.159522, -60.000000, -147.000000, -213.000000,   0.641525, -68.263176,  34.382164,   0.789785,  -0.537359,  -0.161398,   0.247632, 
20468,  -0.089572,  -9.192351,   3.619443, -67.374304,   1.069441,  -0.721825,   0.360035,   0.996019,  -0.144937, -64.500000, -147.000000, -208.500000,   0.637893, -68.924992,  34.371584,   0.786711,  -0.541928,  -0.162803,   0.246611, 
20469,  -0.117861,  -9.242744,   3.451001, -67.237120,   1.033105,  -0.807989,   0.360426,   1.006067,  -0.125055, -64.500000, -142.500000, -202.500000,   0.636965, -69.592560,  34.360956,   0.783551,  -0.546506,  -0.164190,   0.245577, 
20470,  -0.135110,  -9.295096,   3.359361, -67.519840,   1.095838,  -0.844801,   0.352700,   0.987785,  -0.103452, -67.500000, -147.000000, -195.000000,   0.637691, -70.261264,  34.350296,   0.780383,  -0.551095,  -0.165567,   0.244549, 
20471,  -0.088742,  -9.351794,   3.241634, -67.751536,   1.114240,  -0.829621,   0.355614,   0.991043,  -0.094123, -66.000000, -145.500000, -192.000000,   0.630949, -70.933864,  34.339740,   0.777155,  -0.555658,  -0.166991,   0.243465, 
20472,  -0.111162,  -9.337402,   3.177739, -68.104352,   1.043993,  -0.808646,   0.359074,   1.002357,  -0.079102, -64.500000, -141.000000, -187.500000,   0.631354, -71.603688,  34.329008,   0.773926,  -0.560215,  -0.168358,   0.242417, 
20473,  -0.095394,  -9.326775,   3.147766, -67.777784,   1.060787,  -0.856968,   0.371634,   0.987236,  -0.059767, -57.000000, -145.500000, -180.000000,   0.628253, -72.264704,  34.319092,   0.770698,  -0.564672,  -0.169724,   0.241357, 
20474,  -0.125500,  -9.286362,   3.090914, -66.712724,   1.085084,  -0.844803,   0.377430,   0.988139,  -0.060415, -54.000000, -145.500000, -180.000000,   0.628679, -72.911088,  34.308640,   0.767528,  -0.569031,  -0.171029,   0.240330, 
20475,  -0.140644,  -9.256633,   3.025902, -65.089876,   1.072543,  -0.827148,   0.368753,   0.989591,  -0.049791, -58.500000, -144.000000, -177.000000,   0.632046, -73.536512,  34.298592,   0.764422,  -0.573231,  -0.172265,   0.239342, 
20476,  -0.113056,  -9.262632,   3.014301, -62.651292,   1.039979,  -0.879189,   0.370608,   0.982349,  -0.032542, -57.000000, -145.500000, -171.000000,   0.633788, -74.130576,  34.289200,   0.761457,  -0.577204,  -0.173444,   0.238392, 
20477,  -0.101178,  -9.287826,   2.872143, -60.170380,   0.963369,  -0.827111,   0.365342,   0.986696,  -0.035854, -60.000000, -144.000000, -172.500000,   0.632381, -74.701608,  34.280260,   0.758598,  -0.581006,  -0.174595,   0.237460, 
20478,  -0.097284,  -9.336065,   2.747024, -57.594232,   0.975775,  -0.720184,   0.356322,   0.986519,  -0.016155, -64.500000, -142.500000, -166.500000,   0.633558, -75.249640,  34.271272,   0.755819,  -0.584638,  -0.175674,   0.236566, 
20479,  -0.098156,  -9.521071,   2.454169, -56.281276,   0.892979,  -0.663676,   0.352006,   0.971132,  -0.008488, -66.000000, -147.000000, -163.500000,   0.631673, -75.802360,  34.263028,   0.753020,  -0.588292,  -0.176785,   0.235655, 
20480,  -0.121558,  -9.782533,   2.015325, -57.156808,   0.921413,  -0.716331,   0.346056,   0.972221,   0.006349, -69.000000, -145.500000, -159.000000,   0.624983, -76.396104,  34.254488,   0.749982,  -0.592180,  -0.178001,   0.234644, 
20481,  -0.108703, -10.096158,   1.583207, -61.441896,   0.922362,  -0.720006,   0.351510,   0.971495,   0.014776, -66.000000, -145.500000, -156.000000,   0.617696, -77.020008,  34.245648,   0.746780,  -0.596256,  -0.179279,   0.233577, 
20482,  -0.100591, -10.273536,   1.300457, -68.825256,   1.081021,  -0.850742,   0.360579,   0.980092,   0.024034, -61.500000, -142.500000, -153.000000,   0.612927, -77.669208,  34.235940,   0.743418,  -0.600484,  -0.180579,   0.232469, 
20483,  -0.122423, -10.212571,   1.294435, -76.217176,   1.248817,  -0.937896,   0.366767,   0.991043,   0.043268, -58.500000, -138.000000, -147.000000,   0.607435, -78.393848,  34.225088,   0.739636,  -0.605179,  -0.182024,   0.231224, 
20484,  -0.095518, -10.070012,   1.477093, -82.554592,   1.236139,  -1.051451,   0.362793,   0.977285,   0.041860, -60.000000, -142.500000, -147.000000,   0.596491, -79.216320,  34.212844,   0.735314,  -0.610469,  -0.183683,   0.229774, 
20485,  -0.085099,  -9.917242,   1.604751, -85.996952,   1.350671,  -1.078635,   0.362434,   0.972850,   0.041282, -60.000000, -144.000000, -147.000000,   0.587672, -80.086048,  34.200280,   0.730710,  -0.616043,  -0.185413,   0.228249, 
20486,  -0.103096,  -9.705832,   1.721613, -86.683544,   1.387755,  -1.094243,   0.354708,   0.954568,   0.062885, -63.000000, -148.500000, -139.500000,   0.582305, -80.937840,  34.187248,   0.726134,  -0.621460,  -0.187066,   0.226750, 
20487,  -0.094303,  -9.603098,   1.750667, -85.104040,   1.339947,  -1.034178,   0.351143,   0.953665,   0.091012, -64.500000, -147.000000, -130.500000,   0.581248, -81.756288,  34.175412,   0.721710,  -0.626654,  -0.188624,   0.225330, 
20488,  -0.091411,  -9.450773,   1.817481, -81.566880,   1.260787,  -1.005320,   0.352781,   0.977834,   0.108089, -64.500000, -138.000000, -126.000000,   0.581370, -82.522280,  34.163884,   0.717522,  -0.631479,  -0.190060,   0.223991, 
20489,  -0.086131,  -9.340325,   1.837071, -76.337488,   1.240191,  -0.939374,   0.351909,   0.970955,   0.121124, -64.500000, -139.500000, -121.500000,   0.581385, -83.267888,  34.152868,   0.713422,  -0.636155,  -0.191453,   0.222682, 
20490,  -0.072100,  -9.336842,   1.662882, -69.888072,   1.104608,  -0.775002,   0.350492,   0.956020,   0.128467, -64.500000, -144.000000, -118.500000,   0.578856, -83.955696,  34.143216,   0.709612,  -0.640435,  -0.192748,   0.221454, 
20491,  -0.076532,  -9.533843,   1.332419, -64.970704,   0.974680,  -0.775357,   0.346876,   0.946697,   0.127636, -66.000000, -147.000000, -118.500000,   0.579652, -84.565944,  34.134564,   0.706212,  -0.644226,  -0.193872,   0.220377, 
20492,  -0.093289,  -9.654395,   1.017261, -62.088300,   0.976302,  -0.706828,   0.351630,   0.939907,   0.144560, -63.000000, -148.500000, -112.500000,   0.578276, -85.164112,  34.126440,   0.702850,  -0.647909,  -0.194981,   0.219302, 
20493,  -0.092664,  -9.805072,   0.727196, -60.882952,   0.992012,  -0.764828,   0.342268,   0.938101,   0.173335, -67.500000, -147.000000, -103.500000,   0.572765, -85.770784,  34.117988,   0.699449,  -0.651637,  -0.196128,   0.218188, 
20494,  -0.106185,  -9.884551,   0.527565, -61.256116,   0.981948,  -0.774920,   0.345541,   0.945794,   0.183241, -66.000000, -144.000000, -100.500000,   0.566533, -86.390752,  34.109544,   0.695928,  -0.655403,  -0.197292,   0.217033, 
20495,  -0.103850,  -9.887235,   0.447318, -61.879076,   0.994338,  -0.758355,   0.353860,   0.939907,   0.172039, -61.500000, -147.000000, -103.500000,   0.560314, -87.015280,  34.100984,   0.692380,  -0.659197,  -0.198462,   0.215870, 
20496,  -0.105250,  -9.933428,   0.256326, -62.874196,   0.993450,  -0.800277,   0.348269,   0.945431,   0.187455, -64.500000, -144.000000, -99.000000,   0.552917, -87.654536,  34.092756,   0.688715,  -0.663044,  -0.199659,   0.214665, 
20497,  -0.082015, -10.056775,   0.050775, -64.729156,   1.089880,  -0.753243,   0.343986,   0.935657,   0.214426, -66.000000, -145.500000, -90.000000,   0.542831, -88.319784,  34.084144,   0.684892,  -0.667032,  -0.200913,   0.213394, 
20498,  -0.148333,  -9.897131,   0.040422, -67.415424,   1.043267,  -0.833947,   0.342552,   0.917915,   0.212116, -66.000000, -151.500000, -90.000000,   0.534482, -89.008104,  34.075132,   0.680903,  -0.671132,  -0.202187,   0.212080, 
20499,  -0.032796,  -9.868002,   0.119140, -67.965960,   1.141455,  -0.822796,   0.341680,   0.911036,   0.225151, -66.000000, -153.000000, -85.500000,   0.523471, -89.683128,  34.065816,   0.676977,  -0.675130,  -0.203444,   0.210766, 
20500,  -0.118483,  -9.826786,  -0.002323, -67.927528,   0.981429,  -0.786536,   0.344236,   0.909859,   0.233902, -64.500000, -153.000000, -82.500000,   0.517219, -90.350328,  34.057244,   0.673061,  -0.679064,  -0.204654,   0.209491, 
20501,  -0.100870,  -9.901903,  -0.250833, -67.837272,   1.123196,  -0.856515,   0.338115,   0.910133,   0.253277, -67.500000, -151.500000, -76.500000,   0.513222, -91.033496,  34.048716,   0.669024,  -0.683073,  -0.205872,   0.208193, 
20502,  -0.097577,  -9.903111,  -0.244055, -68.415176,   1.069472,  -0.798080,   0.334875,   0.908053,   0.262676, -69.000000, -151.500000, -73.500000,   0.503647, -91.713944,  34.039532,   0.664992,  -0.687035,  -0.207105,   0.206857, 
20503,  -0.086034,  -9.863191,  -0.445450, -69.066040,   1.045976,  -0.854017,   0.336527,   0.894383,   0.265158, -67.500000, -156.000000, -72.000000,   0.496669, -92.403576,  34.031340,   0.660871,  -0.691026,  -0.208337,   0.205517, 
20504,  -0.091806,  -9.879955,  -0.561374, -69.407000,   1.102899,  -0.893508,   0.342543,   0.904520,   0.288929, -64.500000, -151.500000, -64.500000,   0.488727, -93.100672,  34.023028,   0.656688,  -0.695037,  -0.209579,   0.204151, 
20505,  -0.077349,  -9.843977,  -0.627143, -69.830648,   1.012107,  -0.863042,   0.342234,   0.908504,   0.317309, -64.500000, -148.500000, -55.500000,   0.479594, -93.792304,  34.014540,   0.652511,  -0.698986,  -0.210807,   0.202778, 
20506,  -0.087420,  -9.893098,  -0.848826, -70.185520,   1.128961,  -0.785582,   0.334833,   0.889045,   0.320185, -67.500000, -154.500000, -54.000000,   0.471437, -94.495304,  34.006360,   0.648243,  -0.702980,  -0.212044,   0.201386, 
20507,  -0.145552,  -9.989372,  -1.099292, -72.242640,   1.106267,  -0.931455,   0.336468,   0.872569,   0.313013, -66.000000, -160.500000, -55.500000,   0.463647, -95.228024,  33.997420,   0.643763,  -0.707112,  -0.213316,   0.199927, 
20508,  -0.050596,  -9.924212,  -1.144442, -73.970184,   1.247700,  -0.917997,   0.333991,   0.847133,   0.328276, -66.000000, -168.000000, -49.500000,   0.451254, -95.978824,  33.988500,   0.639157,  -0.711311,  -0.214636,   0.198399, 
20509,  -0.077638,  -9.936833,  -1.218553, -75.471520,   1.123212,  -0.810072,   0.339445,   0.846407,   0.336703, -63.000000, -168.000000, -46.500000,   0.439576, -96.729632,  33.979344,   0.634522,  -0.715483,  -0.215939,   0.196865, 
20510,  -0.098023, -10.007207,  -1.603868, -77.795376,   1.153763,  -0.907654,   0.339462,   0.849214,   0.346355, -63.000000, -166.500000, -43.500000,   0.431601, -97.521136,  33.970832,   0.629593,  -0.719849,  -0.217283,   0.195271, 
20511,  -0.057788,  -9.950523,  -1.525300, -80.244848,   1.231483,  -0.921653,   0.327170,   0.841343,   0.356149, -69.000000, -168.000000, -40.500000,   0.421015, -98.328856,  33.961748,   0.624547,  -0.724278,  -0.218657,   0.193621, 
20512,   0.002617, -10.087071,  -1.810386, -83.145976,   1.165543,  -1.012805,   0.321390,   0.843247,   0.366449, -72.000000, -166.500000, -37.500000,   0.400530, -99.158656,  33.952204,   0.619334,  -0.728757,  -0.220101,   0.191849, 
20513,  -0.148007,  -9.831351,  -1.858154, -85.455624,   1.375924,  -1.115738,   0.326331,   0.840077,   0.388489, -69.000000, -166.500000, -30.000000,   0.401532, -100.020176,  33.943400,   0.613857,  -0.733419,  -0.221478,   0.190150, 
20514,   0.012815,  -9.762197,  -1.687859, -85.922512,   1.353504,  -1.070996,   0.326378,   0.807851,   0.393197, -67.500000, -177.000000, -27.000000,   0.384732, -100.859968,  33.933352,   0.608512,  -0.737886,  -0.222889,   0.188359, 
20515,  -0.137176,  -9.616831,  -1.888616, -86.117944,   1.280038,  -1.029006,   0.326753,   0.815093,   0.403427, -67.500000, -174.000000, -24.000000,   0.379773, -101.699488,  33.924208,   0.603114,  -0.742334,  -0.224230,   0.186641, 
20516,  -0.087508,  -9.606194,  -1.996239, -85.336128,   1.322853,  -1.002226,   0.333812,   0.832924,   0.409627, -64.500000, -168.000000, -22.500000,   0.378393, -102.543576,  33.914956,   0.597654,  -0.746781,  -0.225548,   0.184929, 
20517,  -0.027562,  -9.561616,  -1.947368, -84.452208,   1.276740,  -0.923684,   0.329667,   0.818351,   0.412756, -66.000000, -172.500000, -21.000000,   0.365828, -103.352768,  33.906200,   0.592397,  -0.750971,  -0.226853,   0.183202, 
20518,  -0.111158,  -9.293869,  -2.111874, -83.327784,   1.202334,  -1.051866,   0.325743,   0.813013,   0.440305, -67.500000, -172.500000, -12.000000,   0.362823, -104.161120,  33.898336,   0.587112,  -0.755153,  -0.228107,   0.181539, 
20519,  -0.050028,  -9.491310,  -2.208340, -79.343208,   1.211134,  -1.016517,   0.323266,   0.787577,   0.455568, -67.500000, -180.000000,  -6.000000,   0.358591, -104.924744,  33.891132,   0.582079,  -0.759047,  -0.229282,   0.179948, 
20520,  -0.054709,  -9.496376,  -2.651002, -78.786016,   1.130346,  -0.907379,   0.319293,   0.773819,   0.454159, -69.000000, -184.500000,  -6.000000,   0.346471, -105.701568,  33.883868,   0.576961,  -0.762978,  -0.230511,   0.178274, 
20521,  -0.119870,  -9.449797,  -2.770079, -78.801944,   1.245681,  -0.975129,   0.327849,   0.779972,   0.477029, -64.500000, -181.500000,   1.500000,   0.341962, -106.487104,  33.876588,   0.571735,  -0.766920,  -0.231701,   0.176623, 
20522,  -0.013600,  -9.426558,  -2.786976, -78.879640,   1.210447,  -0.941799,   0.331869,   0.761504,   0.483146, -61.500000, -187.500000,   4.500000,   0.328753, -107.258944,  33.868596,   0.566597,  -0.770750,  -0.232897,   0.174930, 
20523,  -0.091007,  -9.347357,  -2.945073, -78.167736,   1.128913,  -0.909296,   0.325715,   0.756166,   0.483217, -64.500000, -189.000000,   4.500000,   0.320729, -108.030704,  33.861312,   0.561423,  -0.774556,  -0.234061,   0.173268, 
20524,  -0.058048,  -9.306550,  -3.033324, -77.393672,   1.242519,  -0.959671,   0.317396,   0.762053,   0.494419, -69.000000, -186.000000,   7.500000,   0.314121, -108.792864,  33.854264,   0.556280,  -0.778273,  -0.235191,   0.171628, 
20525,  -0.032383,  -9.303242,  -3.279230, -77.206472,   1.082405,  -0.873424,   0.306942,   0.744134,   0.511809, -73.500000, -190.500000,  13.500000,   0.299543, -109.555792,  33.847500,   0.551133,  -0.781961,  -0.236356,   0.169928, 
20526,  -0.108641,  -9.325738,  -3.409059, -78.442424,   1.129220,  -0.973237,   0.304995,   0.723948,   0.523111, -73.500000, -196.500000,  18.000000,   0.291095, -110.331104,  33.840660,   0.545851,  -0.785665,  -0.237491,   0.168233, 
20527,   0.025236,  -9.196795,  -3.447514, -78.252784,   1.199877,  -0.987299,   0.306134,   0.707836,   0.539204, -72.000000, -201.000000,  24.000000,   0.276998, -111.104696,  33.833924,   0.540585,  -0.789341,  -0.238646,   0.166500, 
20528,  -0.090110,  -8.986616,  -3.408690, -76.939208,   1.170194,  -0.982059,   0.303285,   0.715804,   0.568486, -73.500000, -196.500000,  33.000000,   0.271214, -111.857680,  33.828268,   0.535397,  -0.792866,  -0.239719,   0.164859, 
20529,  -0.017379,  -9.047297,  -3.666681, -75.084504,   1.166294,  -0.909478,   0.303114,   0.714989,   0.573024, -73.500000, -196.500000,  34.500000,   0.261345, -112.598488,  33.822524,   0.530297,  -0.796320,  -0.240789,   0.163213, 
20530,  -0.046996,  -9.161755,  -4.018128, -75.539432,   1.185064,  -0.922859,   0.295167,   0.687473,   0.570207, -76.500000, -205.500000,  34.500000,   0.249431, -113.353896,  33.816552,   0.525064,  -0.799785,  -0.241869,   0.161510, 
20531,  -0.031070,  -9.201513,  -4.280660, -77.694552,   1.216726,  -0.919929,   0.293220,   0.667288,   0.581509, -76.500000, -211.500000,  39.000000,   0.238243, -114.135024,  33.810660,   0.519636,  -0.803349,  -0.242976,   0.159754, 
20532,  -0.054406,  -9.174026,  -4.393536, -80.828696,   1.223411,  -1.023961,   0.301230,   0.665384,   0.598687, -72.000000, -211.500000,  45.000000,   0.222546, -114.943720,  33.804844,   0.513994,  -0.806985,  -0.244126,   0.157898, 
20533,  -0.069059,  -8.855758,  -4.229953, -82.743472,   1.254799,  -0.966171,   0.303069,   0.655336,   0.606283, -70.500000, -214.500000,  48.000000,   0.212556, -115.760464,  33.798756,   0.508258,  -0.810627,  -0.245246,   0.156056, 
20534,  -0.008174,  -8.691933,  -4.117847, -82.210776,   1.280204,  -0.977257,   0.301652,   0.640400,   0.613626, -70.500000, -219.000000,  51.000000,   0.200408, -116.563808,  33.793144,   0.502602,  -0.814174,  -0.246350,   0.154224, 
20535,  -0.025274,  -8.608352,  -4.220016, -80.288056,   1.195773,  -0.966279,   0.297352,   0.627820,   0.630944, -72.000000, -222.000000,  57.000000,   0.189702, -117.348888,  33.787908,   0.497037,  -0.817587,  -0.247408,   0.152432, 
20536,  -0.042025,  -8.370138,  -4.219388, -77.463336,   1.144858,  -0.953471,   0.291198,   0.622481,   0.631015, -75.000000, -223.500000,  57.000000,   0.182744, -118.108512,  33.782912,   0.491637,  -0.820880,  -0.248411,   0.150720, 
20537,  -0.024305,  -8.320535,  -4.238697, -73.281808,   1.099882,  -0.908205,   0.288129,   0.621215,   0.635876, -76.500000, -223.500000,  58.500000,   0.175457, -118.822552,  33.778352,   0.486526,  -0.823914,  -0.249340,   0.149095, 
20538,  -0.015516,  -8.222857,  -4.351287, -69.014176,   1.081489,  -0.844112,   0.293225,   0.616054,   0.643726, -73.500000, -225.000000,  61.500000,   0.168215, -119.499104,  33.774036,   0.481683,  -0.826787,  -0.250219,   0.147552, 
20539,  -0.038188,  -8.192396,  -4.475370, -64.557816,   1.044925,  -0.769560,   0.295234,   0.606820,   0.646784, -72.000000, -228.000000,  63.000000,   0.163612, -120.134568,  33.770028,   0.477098,  -0.829435,  -0.251020,   0.146110, 
20540,  -0.021578,  -8.216202,  -4.738475, -61.175860,   0.894765,  -0.778486,   0.290577,   0.589804,   0.663526, -73.500000, -232.500000,  69.000000,   0.156570, -120.740552,  33.766892,   0.472729,  -0.831952,  -0.251798,   0.144718, 
20541,  -0.050451,  -8.323525,  -5.114699, -59.561476,   0.909375,  -0.673412,   0.291357,   0.569255,   0.679042, -72.000000, -238.500000,  75.000000,   0.149077, -121.341832,  33.763752,   0.468375,  -0.834415,  -0.252560,   0.143326, 
20542,   0.024926,  -8.424461,  -5.340239, -60.188672,   0.866036,  -0.733309,   0.289159,   0.574868,   0.670869, -73.500000, -237.000000,  72.000000,   0.134975, -121.949128,  33.760668,   0.463982,  -0.836875,  -0.253351,   0.141871, 
20543,  -0.047198,  -8.325785,  -5.388840, -61.477724,   0.958801,  -0.762301,   0.286432,   0.575231,   0.666655, -75.000000, -237.000000,  70.500000,   0.124430, -122.564432,  33.758292,   0.459511,  -0.839352,  -0.254135,   0.140422, 
20544,  -0.020339,  -8.211379,  -5.426595, -62.119940,   0.950353,  -0.770493,   0.289581,   0.549884,   0.685807, -72.000000, -244.500000,  78.000000,   0.115500, -123.188200,  33.755384,   0.454955,  -0.841830,  -0.254908,   0.138959, 
20545,  -0.029178,  -8.160346,  -5.415873, -62.385536,   1.016312,  -0.748072,   0.285624,   0.538933,   0.694051, -73.500000, -247.500000,  81.000000,   0.105809, -123.807520,  33.752536,   0.450431,  -0.844285,  -0.255677,   0.137499, 
20546,  -0.007128,  -7.974467,  -5.426924, -61.647164,   1.002802,  -0.738244,   0.276913,   0.534772,   0.685371, -78.000000, -249.000000,  78.000000,   0.096645, -124.423168,  33.749316,   0.445906,  -0.846676,  -0.256420,   0.136041, 
20547,  -0.033841,  -7.904570,  -5.387405, -60.096304,   0.947947,  -0.716331,   0.281479,   0.524360,   0.697180, -75.000000, -252.000000,  82.500000,   0.091415, -125.018032,  33.746508,   0.441525,  -0.848990,  -0.257125,   0.134660, 
20548,  -0.005335,  -7.802973,  -5.497024, -58.040948,   0.959029,  -0.716700,   0.278239,   0.522280,   0.706579, -76.500000, -252.000000,  85.500000,   0.082683, -125.595480,  33.743832,   0.437260,  -0.851192,  -0.257811,   0.133286, 
20549,  -0.035836,  -7.726148,  -5.573003, -55.845384,   0.858809,  -0.771653,   0.269545,   0.520925,   0.707551, -81.000000, -252.000000,  85.500000,   0.076032, -126.155384,  33.741704,   0.433114,  -0.853317,  -0.258469,   0.131967, 
20550,   0.006686,  -7.640346,  -5.587118, -53.345228,   0.796934,  -0.728771,   0.275934,   0.497658,   0.717304, -76.500000, -259.500000,  90.000000,   0.066362, -126.690784,  33.740112,   0.429150,  -0.855332,  -0.259110,   0.130681, 
20551,  -0.023289,  -7.680547,  -5.829928, -51.228576,   0.745913,  -0.668647,   0.278302,   0.492860,   0.720940, -75.000000, -261.000000,  91.500000,   0.059553, -127.208616,  33.738404,   0.425293,  -0.857248,  -0.259707,   0.129450, 
20552,   0.000682,  -7.804916,  -6.052915, -50.657360,   0.799661,  -0.725220,   0.282618,   0.508247,   0.713274, -73.500000, -256.500000,  88.500000,   0.049713, -127.717800,  33.736796,   0.421507,  -0.859129,  -0.260306,   0.128216, 
20553,  -0.026240,  -7.769080,  -6.233945, -51.792792,   0.810483,  -0.665979,   0.283398,   0.487699,   0.728790, -72.000000, -262.500000,  94.500000,   0.040449, -128.238296,  33.735344,   0.417623,  -0.861028,  -0.260908,   0.126958, 
20554,  -0.027747,  -7.800022,  -6.397780, -53.541676,   0.913294,  -0.676650,   0.282152,   0.473578,   0.731595, -72.000000, -267.000000,  96.000000,   0.033676, -128.777680,  33.733612,   0.413580,  -0.862975,  -0.261513,   0.125670, 
20555,   0.019102,  -7.840291,  -6.453983, -56.113340,   0.804842,  -0.620844,   0.282339,   0.477199,   0.736709, -72.000000, -265.500000,  97.500000,   0.021878, -129.329240,  33.731704,   0.409458,  -0.864962,  -0.262147,   0.124316, 
20556,  -0.023699,  -7.582351,  -6.517996, -58.471828,   0.799728,  -0.750386,   0.272398,   0.461723,   0.740487, -76.500000, -270.000000,  99.000000,   0.008962, -129.917112,  33.730276,   0.405040,  -0.867027,  -0.262812,   0.122865, 
20557,  -0.005138,  -7.459936,  -6.430299, -59.714104,   1.002444,  -0.711153,   0.277632,   0.451763,   0.724494, -73.500000, -274.500000,  94.500000,   0.001865, -130.516280,  33.728744,   0.400522,  -0.869135,  -0.263466,   0.121431, 
20558,   0.001174,  -7.310499,  -6.266214, -59.371520,   0.997426,  -0.765487,   0.278942,   0.436465,   0.736049, -72.000000, -279.000000,  99.000000,  -0.009217, -131.105608,  33.726412,   0.396074,  -0.871175,  -0.264107,   0.119982, 
20559,  -0.003120,  -7.236264,  -6.383967, -58.173136,   0.903931,  -0.726871,   0.268162,   0.419723,   0.772166, -76.500000, -282.000000, 111.000000,  -0.017043, -131.683640,  33.724768,   0.391692,  -0.873154,  -0.264722,   0.118582, 
20560,   0.000674,  -7.194712,  -6.562993, -57.285736,   0.903733,  -0.752877,   0.277232,   0.428320,   0.781425, -72.000000, -279.000000, 114.000000,  -0.026962, -132.262768,  33.723696,   0.387303,  -0.875126,  -0.265346,   0.117165, 
20561,   0.030035,  -7.176964,  -6.708401, -57.104400,   0.917386,  -0.707122,   0.283027,   0.429223,   0.780777, -69.000000, -279.000000, 114.000000,  -0.038349, -132.835968,  33.721928,   0.382943,  -0.877031,  -0.265949,   0.115741, 
20562,  -0.018361,  -7.161046,  -6.829274, -57.645812,   0.966905,  -0.738316,   0.264206,   0.408772,   0.780411, -78.000000, -285.000000, 114.000000,  -0.047426, -133.412048,  33.720784,   0.378555,  -0.878947,  -0.266552,   0.114331, 
20563,   0.006140,  -7.077847,  -6.852249, -58.538852,   0.976002,  -0.714147,   0.260420,   0.398635,   0.784117, -79.500000, -288.000000, 115.500000,  -0.055065, -133.993808,  33.719796,   0.374104,  -0.880846,  -0.267144,   0.112913, 
20564,   0.006082,  -7.000309,  -6.884459, -58.701948,   0.987424,  -0.679962,   0.274567,   0.399263,   0.791572, -72.000000, -288.000000, 118.500000,  -0.064145, -134.577856,  33.718320,   0.369632,  -0.882735,  -0.267734,   0.111475, 
20565,  -0.001888,  -6.957651,  -7.066785, -59.218132,   0.977370,  -0.752550,   0.268959,   0.401981,   0.797335, -75.000000, -286.500000, 120.000000,  -0.073885, -135.170592,  33.717508,   0.365088,  -0.884634,  -0.268333,   0.110012, 
20566,   0.036298,  -6.908421,  -7.107254, -60.522248,   1.000187,  -0.743303,   0.255420,   0.379990,   0.809933, -81.000000, -292.500000, 124.500000,  -0.084859, -135.770272,  33.716756,   0.360475,  -0.886514,  -0.268931,   0.108518, 
20567,  -0.012244,  -6.727465,  -7.106575, -61.317272,   0.974256,  -0.760258,   0.262851,   0.364416,   0.802114, -76.500000, -298.500000, 123.000000,  -0.092635, -136.380384,  33.715880,   0.355775,  -0.888430,  -0.269527,   0.107023, 
20568,   0.011373,  -6.613477,  -7.088943, -61.062672,   1.045529,  -0.818075,   0.264519,   0.353554,   0.814247, -75.000000, -301.500000, 127.500000,  -0.100504, -136.994160,  33.715396,   0.351025,  -0.890301,  -0.270112,   0.105513, 
20569,   0.035882,  -6.597429,  -7.192619, -60.504864,   1.008690,  -0.812584,   0.267075,   0.352376,   0.822999, -73.500000, -301.500000, 130.500000,  -0.113862, -137.597744,  33.714724,   0.346365,  -0.892134,  -0.270701,   0.103984, 
20570,   0.009866,  -6.480170,  -7.271815, -60.418844,   1.026379,  -0.793917,   0.266529,   0.344320,   0.817306, -73.500000, -304.500000, 129.000000,  -0.124592, -138.202832,  33.714364,   0.341673,  -0.893937,  -0.271274,   0.102468, 
