Standard output of YIS Manager:
  TID,     AccX,     AccY,     AccZ,    AngVX,    AngVY,    AngVZ,     MagX,     MagY,     MagZ, NormMagX, NormMagY, NormMagZ,    Pitch,     Roll,      Yaw,       q0,       q1,       q2,       q3, 
21256,   0.133075,   9.804412,   0.264730,  -0.154092,   0.133126,  -0.093672,   0.212498,  -0.911883,  -0.435903, -61.500000, -795.000000, -222.000000,  -0.986299,  88.539568,  29.155334,   0.691448,   0.677069,   0.169713,   0.186028, 
21257,   0.175130,   9.793205,   0.197232,  -0.153721,   0.179850,  -0.040620,   0.208166,  -0.930076,  -0.437888, -63.000000, -801.000000, -222.000000,  -0.987717,  88.545008,  29.145552,   0.691429,   0.677119,   0.169656,   0.185969, 
21258,   0.167665,   9.808450,   0.277581,   0.030124,   0.243620,  -0.050999,   0.209646,  -0.944560,  -0.430870, -61.500000, -805.500000, -219.000000,  -0.990070,  88.540048,  29.146662,   0.691453,   0.677090,   0.169640,   0.185997, 
21259,   0.173068,   9.802536,   0.268634,  -0.118791,   0.223811,  -0.126483,   0.216330,  -0.933972,  -0.434901, -58.500000, -802.500000, -220.500000,  -0.989629,  88.539208,  29.151702,   0.691450,   0.677077,   0.169671,   0.186026, 
21260,   0.172555,   9.791372,   0.235573,  -0.119227,   0.188492,  -0.074898,   0.210550,  -0.932068,  -0.424600, -61.500000, -801.000000, -217.500000,  -0.988687,  88.542944,  29.155176,   0.691424,   0.677094,   0.169703,   0.186036, 
21261,   0.168495,   9.814441,   0.232017,   0.044873,   0.276866,  -0.115035,   0.207465,  -0.936141,  -0.429391, -63.000000, -802.500000, -219.000000,  -0.988513,  88.542760,  29.152460,   0.691430,   0.677096,   0.169688,   0.186019, 
21262,   0.161695,   9.799640,   0.262055,  -0.093669,   0.179892,  -0.005146,   0.211422,  -0.925189,  -0.437635, -61.500000, -799.500000, -222.000000,  -0.988184,  88.543008,  29.147952,   0.691436,   0.677104,   0.169664,   0.185989, 
21263,   0.156498,   9.818612,   0.239603,  -0.135235,   0.294931,  -0.142807,   0.200563,  -0.915318,  -0.425531, -67.500000, -795.000000, -219.000000,  -0.987380,  88.544184,  29.137160,   0.691448,   0.677126,   0.169607,   0.185918, 
21264,   0.154550,   9.796150,   0.247245,   0.018994,   0.258954,  -0.150450,   0.203461,  -0.914867,  -0.425856, -66.000000, -795.000000, -219.000000,  -0.986782,  88.543376,  29.130940,   0.691464,   0.677129,   0.169572,   0.185878, 
21265,   0.160410,   9.791942,   0.272663,   0.060616,   0.134576,  -0.099984,   0.205797,  -0.925278,  -0.441525, -64.500000, -799.500000, -223.500000,  -0.984644,  88.542112,  29.116480,   0.691498,   0.677139,   0.169498,   0.185780, 
21266,   0.169580,   9.827360,   0.273346,   0.000684,   0.161666,  -0.047945,   0.204550,  -0.939399,  -0.438720, -64.500000, -804.000000, -222.000000,  -0.985353,  88.542512,  29.103116,   0.691516,   0.677162,   0.169415,   0.185703, 
21267,   0.177539,   9.801456,   0.204338,   0.026576,   0.170371,  -0.073614,   0.209492,  -0.942569,  -0.416680, -61.500000, -804.000000, -214.500000,  -0.986514,  88.548440,  29.110980,   0.691467,   0.677188,   0.169464,   0.185748, 
21268,   0.168330,   9.817909,   0.273920,   0.163777,   0.143153,  -0.116101,   0.207823,  -0.931706,  -0.428814, -63.000000, -801.000000, -219.000000,  -0.988260,  88.547848,  29.109848,   0.691469,   0.677189,   0.169446,   0.185753, 
21269,   0.179754,   9.830853,   0.280506,   0.207719,   0.240782,  -0.139991,   0.197274,  -0.925818,  -0.445090, -69.000000, -799.500000, -225.000000,  -0.988589,  88.546872,  29.083036,   0.691517,   0.677223,   0.169284,   0.185594, 
21270,   0.173345,   9.829777,   0.237375,   0.275832,   0.187428,  -0.105377,   0.199985,  -0.928988,  -0.450529, -67.500000, -801.000000, -226.500000,  -0.989449,  88.553056,  29.054894,   0.691525,   0.677303,   0.169122,   0.185420, 
21271,   0.164147,   9.787271,   0.234917,   0.508895,   0.311498,  -0.091902,   0.199113,  -0.935866,  -0.437494, -67.500000, -802.500000, -222.000000,  -0.989794,  88.557896,  29.036972,   0.691525,   0.677359,   0.169022,   0.185307, 
21272,   0.137799,   9.822176,   0.271335,   0.353015,   0.187564,  -0.043603,   0.204004,  -0.947455,  -0.444412, -64.500000, -807.000000, -223.500000,  -0.987134,  88.562344,  29.019836,   0.691530,   0.677407,   0.168944,   0.185182, 
21273,   0.195662,   9.825028,   0.199178,   0.146882,   0.178998,  -0.072135,   0.213415,  -0.937230,  -0.444229, -60.000000, -804.000000, -223.500000,  -0.990622,  88.570736,  29.015318,   0.691483,   0.677470,   0.168910,   0.185162, 
21274,   0.156395,   9.776705,   0.213606,   0.087150,   0.205467,  -0.141946,   0.208557,  -0.920028,  -0.418006, -63.000000, -796.500000, -216.000000,  -0.988952,  88.576296,  29.021178,   0.691443,   0.677493,   0.168964,   0.185180, 
21275,   0.179214,   9.793734,   0.223231,  -0.024333,   0.223599,  -0.125446,   0.211267,  -0.923197,  -0.423445, -61.500000, -798.000000, -217.500000,  -0.988368,  88.579824,  29.027572,   0.691413,   0.677504,   0.169011,   0.185210, 
21276,   0.190174,   9.829729,   0.226288,  -0.196891,   0.144007,  -0.111356,   0.208507,  -0.928448,  -0.446964, -63.000000, -801.000000, -225.000000,  -0.990509,  88.582504,  29.014392,   0.691415,   0.677543,   0.168924,   0.185139, 
21277,   0.155015,   9.763070,   0.238964,  -0.307544,   0.242072,  -0.119535,   0.201498,  -0.937858,  -0.424206, -66.000000, -802.500000, -217.500000,  -0.988676,  88.583176,  29.007248,   0.691426,   0.677554,   0.168894,   0.185084, 
21278,   0.187551,   9.792495,   0.233915,  -0.188362,   0.144165,  -0.076447,   0.206064,  -0.948270,  -0.412396, -63.000000, -805.500000, -213.000000,  -0.988648,  88.581984,  29.016190,   0.691418,   0.677534,   0.168945,   0.185140, 
21279,   0.169515,   9.807875,   0.265070,  -0.170341,   0.224015,  -0.109642,   0.207277,  -0.939762,  -0.434506, -63.000000, -804.000000, -220.500000,  -0.989836,  88.578808,  29.011326,   0.691443,   0.677524,   0.168904,   0.185122, 
21280,   0.182121,   9.794862,   0.245089,  -0.127712,   0.197363,  -0.083537,   0.207277,  -0.939762,  -0.434506, -63.000000, -804.000000, -220.500000,  -0.990375,  88.576296,  29.006524,   0.691465,   0.677516,   0.168868,   0.185100, 
21281,   0.170074,   9.799011,   0.263887,  -0.119127,   0.188182,  -0.135823,   0.207294,  -0.936956,  -0.424853, -63.000000, -802.500000, -217.500000,  -0.989865,  88.574920,  29.008126,   0.691471,   0.677505,   0.168878,   0.185109, 
21282,   0.134874,   9.844034,   0.280771,  -0.076189,   0.206409,  -0.030591,   0.211267,  -0.923197,  -0.423445, -61.500000, -798.000000, -217.500000,  -0.988531,  88.572048,  29.015098,   0.691479,   0.677475,   0.168923,   0.185147, 
21283,   0.151087,   9.823344,   0.249008,   0.035848,   0.232404,  -0.115924,   0.214866,  -0.916681,  -0.432267, -60.000000, -796.500000, -220.500000,  -0.987373,  88.571976,  29.019890,   0.691473,   0.677466,   0.168959,   0.185169, 
21284,   0.119152,   9.857855,   0.192138,   0.147288,   0.205243,  -0.158694,   0.208882,  -0.921205,  -0.436733, -63.000000, -798.000000, -222.000000,  -0.984821,  88.572512,  29.013188,   0.691485,   0.677475,   0.168935,   0.185113, 
21285,   0.055860,   9.871517,   0.292004,   0.412714,   0.142859,  -0.061146,   0.211438,  -0.922383,  -0.427983, -61.500000, -798.000000, -219.000000,  -0.982503,  88.568176,  29.017896,   0.691506,   0.677438,   0.168970,   0.185134, 
21286,   0.211463,   9.863130,   0.330928,   0.996806,   0.150178,  -0.106799,   0.214679,  -0.920302,  -0.437381, -60.000000, -798.000000, -222.000000,  -0.985469,  88.566320,  29.024928,   0.691501,   0.677421,   0.168991,   0.185197, 
21287,   0.186456,   9.933177,   0.391642,   2.083113,   0.190932,  -0.153094,   0.213824,  -0.924375,  -0.414694, -60.000000, -798.000000, -214.500000,  -0.986080,  88.570104,  29.035634,   0.691461,   0.677429,   0.169057,   0.185259, 
21288,   0.172352,   9.964641,   0.486509,   4.217389,   0.169059,  -0.184122,   0.210037,  -0.934512,  -0.410988, -61.500000, -801.000000, -213.000000,  -0.988513,  88.570304,  29.058562,   0.691419,   0.677401,   0.169178,   0.185412, 
21289,   0.179873,   9.469499,  -0.234034,   2.144798,   0.245913,  -0.197853,   0.203850,  -0.945463,  -0.430222, -64.500000, -805.500000, -219.000000,  -0.977896,  88.660784,  29.046774,   0.690918,   0.677946,   0.169318,   0.185144, 
21290,   0.179226,   9.822041,   0.253939,   0.645586,   0.240020,  -0.091666,   0.213774,  -0.932794,  -0.443652, -60.000000, -802.500000, -223.500000,  -0.982198,  88.680168,  29.039782,   0.690807,   0.678079,   0.169282,   0.185098, 
21291,   0.108086,   9.878960,   0.341710,   0.845985,   0.138513,  -0.136710,   0.220629,  -0.921392,  -0.452220, -57.000000, -799.500000, -226.500000,  -0.975770,  88.673944,  29.036362,   0.690860,   0.678037,   0.169290,   0.185049, 
21292,   0.199385,   9.743699,   0.074035,   1.065472,   0.140951,  -0.141018,   0.211593,  -0.924375,  -0.442173, -61.500000, -799.500000, -223.500000,  -0.978539,  88.697544,  29.028196,   0.690728,   0.678195,   0.169263,   0.184981, 
21293,   0.143842,   9.864692,   0.309966,   1.029383,   0.161903,  -0.118802,   0.215442,  -0.943657,  -0.431518, -58.500000, -805.500000, -219.000000,  -0.976733,  88.706112,  29.026500,   0.690683,   0.678246,   0.169278,   0.184948, 
21294,   0.193199,   9.882797,   0.282412,   1.657613,   0.113241,  -0.074066,   0.220863,  -0.949996,  -0.442396, -55.500000, -808.500000, -222.000000,  -0.976007,  88.709536,  29.032858,   0.690653,   0.678256,   0.169325,   0.184977, 
21295,   0.161109,   9.829076,   0.217743,   2.327328,   0.190502,  -0.127204,   0.213261,  -0.935238,  -0.430039, -60.000000, -802.500000, -219.000000,  -0.979305,  88.729464,  29.037406,   0.690522,   0.678374,   0.169365,   0.184994, 
21296,   0.146225,   9.872274,   0.322186,   2.876795,   0.092710,  -0.061000,   0.208011,  -0.928085,  -0.423699, -63.000000, -799.500000, -217.500000,  -0.978845,  88.746000,  29.040140,   0.690420,   0.678468,   0.169410,   0.184983, 
21297,   0.190510,   9.893991,   0.270990,   3.853664,   0.163389,  -0.103135,   0.206172,  -0.918036,  -0.431295, -64.500000, -796.500000, -220.500000,  -0.984125,  88.770600,  29.039502,   0.690266,   0.678625,   0.169414,   0.184974, 
21298,   0.147514,   9.911224,   0.347599,   4.989699,   0.141432,  -0.019452,   0.209649,  -0.903915,  -0.406621, -63.000000, -790.500000, -213.000000,  -0.983813,  88.802104,  29.044212,   0.690072,   0.678806,   0.169494,   0.184954, 
21299,   0.173316,   9.939595,   0.358499,   6.647193,   0.157470,  -0.002842,   0.206563,  -0.907987,  -0.411412, -64.500000, -792.000000, -214.500000,  -0.986456,  88.840472,  29.057476,   0.689818,   0.679021,   0.169619,   0.184992, 
21300,   0.165133,   9.911256,   0.292845,   8.046737,   0.134390,  -0.020712,   0.203086,  -0.922108,  -0.436086, -66.000000, -798.000000, -222.000000,  -0.989346,  88.901520,  29.054496,   0.689455,   0.679396,   0.169682,   0.184900, 
21301,   0.162565,   9.856262,   0.282297,   9.012811,   0.096919,   0.045350,   0.206155,  -0.920842,  -0.440947, -64.500000, -798.000000, -223.500000,  -0.991873,  88.975240,  29.039182,   0.689038,   0.679864,   0.169694,   0.184713, 
21302,   0.130075,   9.849023,   0.150902,   9.891970,   0.041591,   0.058887,   0.206889,  -0.909165,  -0.430140, -64.500000, -793.500000, -220.500000,  -0.988528,  89.065448,  29.023498,   0.688531,   0.680423,   0.169766,   0.184465, 
21303,   0.178279,   9.849498,   0.213688,  10.409399,   0.061915,   0.013697,   0.211813,  -0.915141,  -0.417753, -61.500000, -795.000000, -216.000000,  -0.993998,  89.159040,  29.022246,   0.687968,   0.680994,   0.169876,   0.184351, 
21304,   0.122900,   9.797171,   0.085895,  10.853542,   0.030801,   0.121506,   0.209883,  -0.932520,  -0.396798, -61.500000, -799.500000, -208.500000,  -0.990752,  89.266624,  29.029248,   0.687321,   0.681624,   0.170110,   0.184214, 
21305,   0.178084,   9.831297,   0.115051,  11.317326,   0.020336,   0.022961,   0.207514,  -0.927721,  -0.400434, -63.000000, -798.000000, -210.000000,  -0.994462,  89.377640,  29.041118,   0.686636,   0.682278,   0.170337,   0.184143, 
21306,   0.161214,   9.889572,   0.204276,  11.849826,   0.037149,   0.071673,   0.201498,  -0.937858,  -0.424206, -66.000000, -802.500000, -217.500000,  -0.996532,  89.483616,  29.037820,   0.686008,   0.682922,   0.170475,   0.183978, 
21307,   0.197990,   9.880044,   0.127823,  12.736410,  -0.037930,   0.091710,   0.197916,  -0.941568,  -0.405732, -67.500000, -802.500000, -211.500000,  -1.000502,  89.596816,  29.025288,   0.685348,   0.683625,   0.170559,   0.183758, 
21308,   0.153779,   9.847888,   0.073766,  13.455220,  -0.001952,   0.106070,   0.197932,  -0.938762,  -0.396079, -67.500000, -801.000000, -208.500000,  -1.003075,  89.724200,  29.017596,   0.684598,   0.684404,   0.170702,   0.183539, 
21309,   0.151909,   9.859379,   0.043006,  14.042289,   0.030465,   0.138255,   0.203166,  -0.948721,  -0.412072, -64.500000, -805.500000, -213.000000,  -1.002862,  89.859616,  29.008476,   0.683807,   0.685229,   0.170867,   0.183282, 
21310,   0.184480,   9.830133,   0.021458,  14.743230,  -0.004712,   0.146319,   0.205192,  -0.955149,  -0.399361, -63.000000, -807.000000, -208.500000,  -1.007839,  89.999936,  29.003750,   0.682972,   0.686085,   0.171034,   0.183075, 
21311,   0.185360,   9.851335,   0.058463,  15.492321,  -0.004698,   0.099453,   0.206268,  -0.941843,  -0.397629, -63.000000, -802.500000, -208.500000,  -1.008543,  90.145584,  29.003776,   0.682093,   0.686949,   0.171261,   0.182861, 
21312,   0.139873,   9.888244,   0.012313,  16.246307,   0.018335,   0.111069,   0.209337,  -0.940576,  -0.402490, -61.500000, -802.500000, -210.000000,  -1.008530,  90.296152,  29.003396,   0.681187,   0.687841,   0.171498,   0.182632, 
21313,   0.152489,   9.891150,   0.008868,  17.095710,  -0.045537,   0.180212,   0.206439,  -0.941028,  -0.402166, -63.000000, -802.500000, -210.000000,  -1.009592,  90.454752,  28.999764,   0.680236,   0.688788,   0.171722,   0.182379, 
21314,   0.158604,   9.908870,   0.001844,  18.245974,  -0.101897,   0.113556,   0.203728,  -0.937858,  -0.396727, -64.500000, -801.000000, -208.500000,  -1.012011,  90.619888,  28.993244,   0.679247,   0.689779,   0.171930,   0.182107, 
21315,   0.185671,   9.990761,   0.075872,  19.835390,  -0.016325,   0.167398,   0.206285,  -0.939036,  -0.387976, -63.000000, -801.000000, -205.500000,  -1.019286,  90.786632,  28.994150,   0.678230,   0.690777,   0.172158,   0.181905, 
21316,   0.216202,  10.033077,   0.133374,  22.746232,  -0.040699,   0.190329,   0.209712,  -0.933334,  -0.392260, -61.500000, -799.500000, -207.000000,  -1.028539,  90.965200,  29.001162,   0.677128,   0.691838,   0.172429,   0.181734, 
21317,   0.163078,  10.106499,   0.171389,  26.283062,  -0.146327,   0.262227,   0.208824,  -0.943020,  -0.388878, -61.500000, -802.500000, -205.500000,  -1.036186,  91.164200,  29.008584,   0.675906,   0.693016,   0.172745,   0.181526, 
21318,   0.178162,  10.097636,   0.137856,  30.378518,  -0.217976,   0.271259,   0.200488,  -0.939939,  -0.387328, -66.000000, -801.000000, -205.500000,  -1.044323,  91.400408,  29.009432,   0.674468,   0.694426,   0.173077,   0.181225, 
21319,   0.162292,  10.074835,   0.039755,  34.088144,  -0.226396,   0.294570,   0.200880,  -0.929890,  -0.367446, -66.000000, -796.500000, -199.500000,  -1.052200,  91.678792,  29.008212,   0.672761,   0.696068,   0.173461,   0.180843, 
21320,   0.170780,  10.051258,  -0.010361,  37.813512,  -0.358781,   0.437693,   0.211088,  -0.937407,  -0.342094, -60.000000, -798.000000, -190.500000,  -1.058653,  91.997760,  29.024684,   0.670780,   0.697918,   0.174025,   0.180493, 
21321,   0.168007,  10.016577,  -0.102471,  41.248348,  -0.375746,   0.405608,   0.204404,  -0.947996,  -0.338064, -63.000000, -801.000000, -189.000000,  -1.065162,  92.353272,  29.048974,   0.668565,   0.699970,   0.174695,   0.180134, 
21322,   0.199770,  10.030264,  -0.223209,  44.425004,  -0.436215,   0.448232,   0.202970,  -0.965737,  -0.340374, -63.000000, -807.000000, -189.000000,  -1.077890,  92.750736,  29.063586,   0.666098,   0.702291,   0.175336,   0.179693, 
21323,   0.290862,  10.152794,  -0.215364,  47.302532,  -0.362875,   0.429017,   0.208594,  -0.965649,  -0.336484, -60.000000, -807.000000, -187.500000,  -1.095634,  93.168736,  29.080132,   0.663470,   0.704709,   0.175987,   0.179254, 
21324,   1.446249,  10.644412,  -0.169827,  50.400292,  -0.574007,   0.546421,   0.205697,  -0.966100,  -0.336160, -61.500000, -807.000000, -187.500000,  -1.101205,  93.658464,  29.152886,   0.660328,   0.707432,   0.177168,   0.178954, 
21325,   1.971338,  10.712245,   0.022985,  53.517976,  -0.527852,   0.538072,   0.194634,  -0.962656,  -0.338824, -67.500000, -805.500000, -189.000000,  -1.106949,  94.178976,  29.249284,   0.656961,   0.710296,   0.178547,   0.178739, 
21326,   2.360925,  10.992964,  -0.203493,  56.582488,  -0.632329,   0.622193,   0.188871,  -0.957946,  -0.318871, -70.500000, -802.500000, -183.000000,  -1.113299,  94.731496,  29.381160,   0.653306,   0.713250,   0.180190,   0.178665, 
21327,   2.106890,  10.207937,  -0.460873,  58.249192,  -0.556093,   0.624503,   0.199249,  -0.964649,  -0.298057, -64.500000, -804.000000, -175.500000,  -1.119935,  95.307408,  29.479558,   0.649555,   0.716385,   0.181664,   0.178358, 
21328,   1.770843,  10.672070,  -0.496701,  58.678368,  -0.584012,   0.576517,   0.202335,  -0.960576,  -0.293266, -63.000000, -802.500000, -174.000000,  -1.126467,  95.893400,  29.602084,   0.645682,   0.719512,   0.183306,   0.178158, 
21329,   2.457045,  10.069206,  -0.662554,  59.149816,  -0.655799,   0.667465,   0.208302,  -0.958858,  -0.298452, -60.000000, -802.500000, -175.500000,  -1.132607,  96.483424,  29.714384,   0.641777,   0.722646,   0.184893,   0.177878, 
21330,   1.774761,   9.952148,  -0.735588,  60.257724,  -0.649701,   0.618857,   0.209628,  -0.971350,  -0.277243, -58.500000, -805.500000, -168.000000,  -1.139093,  97.081520,  29.801886,   0.637858,   0.725862,   0.186339,   0.177440, 
21331,   0.807062,  10.909255,  -0.738608,  61.150924,  -0.642987,   0.594005,   0.206747,  -0.968995,  -0.267267, -60.000000, -804.000000, -165.000000,  -1.145301,  97.689560,  29.867458,   0.633874,   0.729125,   0.187658,   0.176848, 
21332,   0.440356,  10.771610,  -0.915534,  62.051872,  -0.707065,   0.646306,   0.204003,  -0.971439,  -0.281133, -61.500000, -805.500000, -169.500000,  -1.151539,  98.306728,  29.891184,   0.629898,   0.732507,   0.188727,   0.176007, 
21333,   1.050928,  10.259726,  -1.220578,  63.005204,  -0.682251,   0.709467,   0.195764,  -0.992165,  -0.245917, -64.500000, -810.000000, -157.500000,  -1.204403,  98.907480,  29.911682,   0.625919,   0.735833,   0.189486,   0.175464, 
21334,   0.815789,  10.481283,  -1.320737,  63.700776,  -0.683902,   0.699694,   0.198507,  -0.989721,  -0.232051, -63.000000, -808.500000, -153.000000,  -1.237129,  99.513728,  29.926172,   0.621940,   0.739158,   0.190327,   0.174748, 
21335,   0.956128,   9.575907,  -1.591784,  63.683632,  -0.674790,   0.734479,   0.195780,  -0.989358,  -0.236265, -64.500000, -808.500000, -154.500000,  -1.310045, 100.108408,  29.932218,   0.617959,   0.742470,   0.190876,   0.174261, 
21336,   1.213388,   9.773562,  -1.669404,  63.890320,  -0.631258,   0.641797,   0.194192,  -1.005108,  -0.224385, -64.500000, -813.000000, -150.000000,  -1.316316, 100.747416,  29.942248,   0.613779,   0.745891,   0.191875,   0.173288, 
21337,   0.788787,   9.860315,  -1.635329,  63.804580,  -0.613140,   0.667283,   0.187353,  -1.013704,  -0.206164, -67.500000, -814.500000, -144.000000,  -1.365041, 101.361056,  29.952038,   0.609682,   0.749227,   0.192605,   0.172629, 
21338,   1.064732,   9.612589,  -1.852392,  63.684116,  -0.630441,   0.709164,   0.182290,  -1.002930,  -0.194709, -70.500000, -810.000000, -141.000000,  -1.371108, 102.000056,  29.966406,   0.605454,   0.752589,   0.193624,   0.171666, 
21339,   0.851017,  10.136657,  -1.971661,  63.177992,  -0.585044,   0.660880,   0.192043,  -0.991075,  -0.203601, -66.000000, -807.000000, -144.000000,  -1.377149, 102.635912,  29.984378,   0.601242,   0.755928,   0.194664,   0.170726, 
21340,   1.066643,   9.682925,  -2.251675,  62.475476,  -0.616165,   0.637116,   0.188820,  -0.990349,  -0.184549, -67.500000, -805.500000, -138.000000,  -1.421225, 103.249696,  29.987018,   0.597089,   0.759179,   0.195358,   0.169982, 
21341,   1.346104,   9.245668,  -2.491463,  61.039216,  -0.642515,   0.636297,   0.187606,  -0.998857,  -0.162439, -67.500000, -807.000000, -130.500000,  -1.463177, 103.867928,  29.996152,   0.592898,   0.762434,   0.196116,   0.169252, 
21342,   0.917161,   9.293217,  -2.515874,  59.376412,  -0.625218,   0.564135,   0.187264,  -1.000487,  -0.153364, -67.500000, -807.000000, -127.500000,  -1.562036, 104.471520,  29.998192,   0.588681,   0.765662,   0.196503,   0.168882, 
21343,   0.482564,   9.573655,  -2.525414,  58.248792,  -0.600663,   0.606300,   0.192906,  -0.997591,  -0.139822, -64.500000, -805.500000, -123.000000,  -1.623509, 105.052960,  30.001646,   0.584668,   0.768710,   0.197064,   0.168310, 
21344,   0.619687,   9.509598,  -2.696305,  57.361516,  -0.596811,   0.573387,   0.196008,  -0.990713,  -0.125379, -63.000000, -802.500000, -118.500000,  -1.701849, 105.634368,  30.018554,   0.580591,   0.771741,   0.197629,   0.167919, 
21345,   0.929402,   9.283669,  -2.950741,  56.196164,  -0.622565,   0.618111,   0.186442,  -0.998946,  -0.111371, -67.500000, -804.000000, -114.000000,  -1.794944, 106.223320,  30.026942,   0.576422,   0.774806,   0.198070,   0.167566, 
21346,   0.947258,   9.091873,  -3.057690,  54.683312,  -0.495940,   0.537939,   0.184838,  -1.017502,  -0.109144, -67.500000, -810.000000, -112.500000,  -1.850386, 106.801344,  30.012426,   0.572430,   0.777809,   0.198537,   0.166869, 
21347,   0.599526,   9.101513,  -3.105586,  52.967576,  -0.597389,   0.609100,   0.188094,  -1.012615,  -0.108891, -66.000000, -808.500000, -112.500000,  -1.878646, 107.363368,  29.987676,   0.568583,   0.780674,   0.199039,   0.165959, 
21348,   0.348340,   9.207596,  -3.250927,  51.149664,  -0.456609,   0.453294,   0.185212,  -1.010260,  -0.098914, -67.500000, -807.000000, -109.500000,  -1.923415, 107.918752,  29.964908,   0.564741,   0.783517,   0.199463,   0.165185, 
21349,   0.661365,   9.093564,  -3.414377,  49.027912,  -0.410701,   0.551610,   0.179262,  -1.009171,  -0.084076, -70.500000, -805.500000, -105.000000,  -1.980294, 108.461760,  29.943282,   0.560948,   0.786294,   0.199814,   0.164521, 
21350,   0.706871,   8.948582,  -3.439382,  46.752748,  -0.470064,   0.481976,   0.175492,  -1.016502,  -0.070717, -72.000000, -807.000000, -100.500000,  -2.004727, 108.980640,  29.908180,   0.557379,   0.788909,   0.200193,   0.163609, 
21351,   0.273056,   9.086896,  -3.430259,  45.120672,  -0.428969,   0.438618,   0.181492,  -1.009172,  -0.056598, -69.000000, -804.000000, -96.000000,  -2.001321, 109.469528,  29.879416,   0.554061,   0.791334,   0.200709,   0.162592, 
21352,   0.317263,   9.117422,  -3.559680,  43.593612,  -0.376100,   0.425636,   0.196528,  -0.998858,  -0.052525, -61.500000, -801.000000, -94.500000,  -2.010679, 109.943200,  29.874594,   0.550774,   0.793636,   0.201301,   0.161802, 
21353,   0.471144,   9.026088,  -3.575185,  42.493064,  -0.423156,   0.392369,   0.199068,  -1.002842,  -0.053427, -60.000000, -802.500000, -94.500000,  -2.023128, 110.399920,  29.868418,   0.547587,   0.795844,   0.201839,   0.161054, 
21354,   0.234272,   9.026382,  -3.570852,  41.464604,  -0.316042,   0.387777,   0.193084,  -1.007366,  -0.057893, -63.000000, -804.000000, -96.000000,  -2.009488, 110.840064,  29.837714,   0.544600,   0.797987,   0.202310,   0.160039, 
21355,   0.165961,   9.085299,  -3.609878,  41.059232,  -0.383864,   0.473004,   0.189502,  -1.011075,  -0.039420, -64.500000, -804.000000, -90.000000,  -1.992652, 111.266224,  29.809680,   0.541702,   0.800040,   0.202789,   0.159036, 
21356,   0.222058,   9.099527,  -3.614959,  41.288512,  -0.362897,   0.423685,   0.185733,  -1.018405,  -0.026060, -66.000000, -805.500000, -85.500000,  -1.977603, 111.680800,  29.782670,   0.538866,   0.802018,   0.203244,   0.158069, 
21357,   0.232779,   9.071004,  -3.694374,  41.884068,  -0.341367,   0.456737,   0.182868,  -1.013244,  -0.006431, -67.500000, -802.500000, -79.500000,  -1.962484, 112.099000,  29.761850,   0.535995,   0.804003,   0.203746,   0.157124, 
21358,   0.176982,   9.058391,  -3.710274,  42.494652,  -0.349711,   0.452678,   0.183772,  -1.000752,  -0.000162, -67.500000, -798.000000, -78.000000,  -1.945440, 112.518192,  29.744614,   0.533115,   0.805982,   0.204282,   0.156180, 
21359,   0.186110,   9.053535,  -3.732504,  43.464644,  -0.300833,   0.396543,   0.189381,  -1.003470,  -0.005925, -64.500000, -799.500000, -79.500000,  -1.928719, 112.938760,  29.726488,   0.530203,   0.807935,   0.204801,   0.155226, 
21360,   0.193056,   9.001236,  -3.798848,  44.631556,  -0.394326,   0.421274,   0.189039,  -1.005099,   0.003149, -64.500000, -799.500000, -76.500000,  -1.913770, 113.371336,  29.708844,   0.527202,   0.809945,   0.205331,   0.154266, 
21361,   0.201359,   8.971038,  -3.890611,  45.499376,  -0.350017,   0.391975,   0.176730,  -1.015776,   0.003291, -70.500000, -802.500000, -76.500000,  -1.898417, 113.817272,  29.665812,   0.524141,   0.812063,   0.205699,   0.153163, 
21362,   0.182221,   8.977320,  -3.907536,  46.586056,  -0.351268,   0.443571,   0.179457,  -1.016139,   0.007504, -69.000000, -802.500000, -75.000000,  -1.883806, 114.266768,  29.625648,   0.521030,   0.814163,   0.206078,   0.152068, 
21363,   0.188349,   8.972344,  -3.929068,  48.254324,  -0.498282,   0.471908,   0.191066,  -1.011526,   0.015861, -63.000000, -801.000000, -72.000000,  -1.869010, 114.722408,  29.603076,   0.517846,   0.816251,   0.206588,   0.151040, 
21364,   0.176417,   8.930719,  -3.975283,  50.249264,  -0.406588,   0.552567,   0.191611,  -1.003470,   0.021553, -63.000000, -798.000000, -70.500000,  -1.853985, 115.193576,  29.581978,   0.514549,   0.818407,   0.207128,   0.149990, 
21365,   0.176523,   8.898166,  -4.053141,  52.264076,  -0.551946,   0.480315,   0.180224,  -0.998849,   0.037616, -69.000000, -795.000000, -66.000000,  -1.839729, 115.683728,  29.552484,   0.511106,   0.820632,   0.207619,   0.148869, 
21366,   0.219817,   8.920458,  -4.059885,  54.891984,  -0.531203,   0.500931,   0.178977,  -1.012970,   0.040421, -69.000000, -799.500000, -64.500000,  -1.832528, 116.184880,  29.518094,   0.507570,   0.822912,   0.208053,   0.147755, 
21367,   0.176816,   8.836966,  -4.192459,  57.880400,  -0.510827,   0.612541,   0.184806,  -1.006453,   0.059078, -66.000000, -796.500000, -58.500000,  -1.820087, 116.716128,  29.497270,   0.503809,   0.825296,   0.208645,   0.146610, 
21368,   0.192539,   8.697807,  -4.388962,  59.674324,  -0.595012,   0.613402,   0.174664,  -0.987711,   0.072337, -72.000000, -789.000000, -55.500000,  -1.807677, 117.291912,  29.465304,   0.499711,   0.827846,   0.209199,   0.145329, 
21369,   0.183068,   8.649545,  -4.472869,  61.125140,  -0.624561,   0.707186,   0.180819,  -0.982372,   0.072266, -69.000000, -787.500000, -55.500000,  -1.796551, 117.889400,  29.434654,   0.495451,   0.830490,   0.209782,   0.144024, 
21370,   0.192900,   8.577084,  -4.613894,  62.250420,  -0.600753,   0.650382,   0.179622,  -0.988074,   0.104029, -69.000000, -787.500000, -45.000000,  -1.782822, 118.501552,  29.413510,   0.491059,   0.833146,   0.210453,   0.142711, 
21371,   0.211595,   8.483304,  -4.751327,  63.074076,  -0.664613,   0.710539,   0.179263,  -0.992509,   0.103451, -69.000000, -789.000000, -45.000000,  -1.772848, 119.131992,  29.381464,   0.486526,   0.835882,   0.211044,   0.141342, 
21372,   0.193283,   8.383253,  -4.930351,  63.324104,  -0.576608,   0.636531,   0.185418,  -0.987171,   0.103381, -66.000000, -787.500000, -45.000000,  -1.760033, 119.779480,  29.347886,   0.481863,   0.838670,   0.211649,   0.139914, 
21373,   0.171140,   8.296089,  -5.040346,  62.833812,  -0.655442,   0.655838,   0.182211,  -0.983639,   0.132085, -67.500000, -784.500000, -36.000000,  -1.745385, 120.429976,  29.321050,   0.477153,   0.841421,   0.212303,   0.138490, 
21374,   0.195852,   8.242392,  -5.135805,  62.147408,  -0.600611,   0.631844,   0.187307,  -0.988800,   0.139934, -64.500000, -786.000000, -33.000000,  -1.732059, 121.077392,  29.296494,   0.472452,   0.844145,   0.212959,   0.137091, 
21375,   0.209665,   8.231735,  -5.155185,  61.984444,  -0.582496,   0.621668,   0.184066,  -0.990881,   0.149333, -66.000000, -786.000000, -30.000000,  -1.720889, 121.709184,  29.268594,   0.467840,   0.846768,   0.213549,   0.135717, 
21376,   0.197245,   8.117465,  -5.327684,  61.968016,  -0.502303,   0.640317,   0.181527,  -0.986897,   0.150235, -67.500000, -784.500000, -30.000000,  -1.706135, 122.349384,  29.229226,   0.463186,   0.849442,   0.214076,   0.134256, 
21377,   0.191290,   8.014318,  -5.458225,  61.013896,  -0.588814,   0.689190,   0.181185,  -0.988526,   0.159310, -67.500000, -784.500000, -27.000000,  -1.691714, 122.993184,  29.184700,   0.458478,   0.852085,   0.214550,   0.132764, 
21378,   0.188450,   8.045057,  -5.457634,  60.413008,  -0.578923,   0.613123,   0.177228,  -0.999477,   0.167554, -69.000000, -787.500000, -24.000000,  -1.678090, 123.617984,  29.131880,   0.453918,   0.854668,   0.214934,   0.131283, 
21379,   0.206632,   8.020894,  -5.532466,  60.181496,  -0.551979,   0.558833,   0.177073,  -0.997485,   0.181744, -69.000000, -786.000000, -19.500000,  -1.666261, 124.231792,  29.083686,   0.449407,   0.857158,   0.215319,   0.129851, 
21380,   0.193302,   7.947772,  -5.585730,  60.000652,  -0.604951,   0.555900,   0.180363,  -0.986985,   0.201303, -67.500000, -781.500000, -13.500000,  -1.653297, 124.843080,  29.049170,   0.444894,   0.859599,   0.215801,   0.128471, 
21381,   0.200059,   7.916563,  -5.660062,  60.360976,  -0.623066,   0.655280,   0.175129,  -0.977025,   0.217296, -70.500000, -777.000000,  -9.000000,  -1.641328, 125.449728,  29.015248,   0.440399,   0.861996,   0.216270,   0.127106, 
21382,   0.198302,   7.814581,  -5.789981,  60.558800,  -0.587881,   0.666787,   0.169146,  -0.981549,   0.212828, -73.500000, -778.500000, -10.500000,  -1.629351, 126.065216,  28.960230,   0.435845,   0.864439,   0.216580,   0.125643, 
21383,   0.215111,   7.742589,  -5.881380,  60.301132,  -0.605405,   0.602717,   0.174958,  -0.977840,   0.221833, -70.500000, -777.000000,  -7.500000,  -1.619686, 126.685440,  28.913076,   0.431235,   0.866875,   0.216939,   0.124220, 
21384,   0.192378,   7.723829,  -5.912840,  60.430516,  -0.543332,   0.622651,   0.172639,  -0.964621,   0.247154, -72.000000, -771.000000,   0.000000,  -1.609762, 127.296232,  28.878178,   0.426661,   0.869208,   0.217368,   0.122855, 
21385,   0.173830,   7.698563,  -5.949587,  60.825148,  -0.579760,   0.635054,   0.178435,  -0.963718,   0.246506, -69.000000, -771.000000,   0.000000,  -1.597762, 127.900824,  28.840256,   0.422139,   0.871523,   0.217773,   0.121478, 
21386,   0.208416,   7.588086,  -6.040289,  61.460572,  -0.599422,   0.554675,   0.180666,  -0.963719,   0.273985, -67.500000, -769.500000,   9.000000,  -1.589909, 128.513320,  28.811674,   0.417515,   0.873803,   0.218227,   0.120147, 
21387,   0.179153,   7.459707,  -6.215283,  61.511612,  -0.616400,   0.737698,   0.186291,  -0.963630,   0.277874, -64.500000, -769.500000,  10.500000,  -1.576629, 129.142072,  28.784140,   0.412773,   0.876129,   0.218723,   0.118748, 
21388,   0.227148,   7.374037,  -6.328296,  61.116572,  -0.633748,   0.646008,   0.178518,  -0.949686,   0.294769, -69.000000, -763.500000,  15.000000,  -1.568274, 129.777432,  28.756830,   0.407952,   0.878446,   0.219198,   0.117372, 
21389,   0.176266,   7.364833,  -6.352288,  60.851236,  -0.553350,   0.592296,   0.179610,  -0.933573,   0.306154, -69.000000, -757.500000,  18.000000,  -1.556536, 130.399032,  28.734332,   0.403228,   0.880680,   0.219701,   0.116012, 
21390,   0.178489,   7.295173,  -6.394811,  60.996268,  -0.642375,   0.644530,   0.174001,  -0.930855,   0.311917, -72.000000, -756.000000,  19.500000,  -1.545054, 131.014192,  28.711882,   0.398542,   0.882871,   0.220189,   0.114665, 
21391,   0.194800,   7.171337,  -6.570643,  60.842204,  -0.588606,   0.652490,   0.172537,  -0.913564,   0.314551, -73.500000, -750.000000,  19.500000,  -1.534789, 131.639848,  28.691072,   0.393754,   0.885059,   0.220685,   0.113310, 
21392,   0.185224,   7.091191,  -6.668145,  60.206908,  -0.578460,   0.610860,   0.187027,  -0.911307,   0.312931, -66.000000, -750.000000,  19.500000,  -1.521928, 132.267136,  28.679684,   0.388946,   0.887227,   0.221262,   0.111965, 
21393,   0.190884,   6.991819,  -6.770466,  59.208320,  -0.632473,   0.616306,   0.182712,  -0.926694,   0.320598, -67.500000, -754.500000,  22.500000,  -1.509849, 132.889920,  28.656928,   0.384159,   0.889350,   0.221728,   0.110589, 
21394,   0.195955,   6.951969,  -6.819833,  58.267156,  -0.485227,   0.573742,   0.182557,  -0.924702,   0.334788, -67.500000, -753.000000,  27.000000,  -1.499130, 133.502224,  28.623136,   0.379462,   0.891461,   0.222093,   0.109209, 
21395,   0.205167,   6.926727,  -6.824437,  57.813364,  -0.447654,   0.565542,   0.191097,  -0.921355,   0.348005, -63.000000, -751.500000,  31.500000,  -1.490651, 134.094984,  28.600470,   0.374879,   0.893439,   0.222503,   0.107918, 
21396,   0.181239,   6.898820,  -6.806405,  57.922096,  -0.635426,   0.619490,   0.174067,  -0.919629,   0.350527, -72.000000, -750.000000,  31.500000,  -1.480897, 134.677248,  28.572690,   0.370382,   0.895384,   0.222865,   0.106620, 
21397,   0.190587,   6.893682,  -6.818273,  58.667496,  -0.528730,   0.558039,   0.166294,  -0.905685,   0.367422, -76.500000, -744.000000,  36.000000,  -1.472743, 135.252720,  28.534044,   0.365935,   0.897305,   0.223122,   0.105313, 
21398,   0.177723,   6.802756,  -6.938103,  59.682876,  -0.604061,   0.587227,   0.169038,  -0.903241,   0.381287, -75.000000, -742.500000,  40.500000,  -1.464133, 135.839120,  28.497214,   0.361387,   0.899226,   0.223396,   0.103986, 
21399,   0.195118,   6.685476,  -7.004086,  60.430852,  -0.516874,   0.577676,   0.174663,  -0.903153,   0.385177, -72.000000, -742.500000,  42.000000,  -1.457577, 136.437136,  28.464752,   0.356738,   0.901175,   0.223705,   0.102668, 
21400,   0.177436,   6.538478,  -7.184385,  60.557728,  -0.694547,   0.682286,   0.177406,  -0.900709,   0.399043, -70.500000, -741.000000,  46.500000,  -1.446196, 137.055360,  28.430990,   0.351918,   0.903130,   0.224021,   0.101265, 
21401,   0.203011,   6.370929,  -7.353094,  59.642532,  -0.704108,   0.720384,   0.171268,  -0.903242,   0.408766, -73.500000, -741.000000,  49.500000,  -1.435933, 137.685120,  28.389990,   0.347011,   0.905137,   0.224285,   0.099829, 
21402,   0.209175,   6.273592,  -7.491803,  58.111160,  -0.599646,   0.744049,   0.171285,  -0.900435,   0.418418, -73.500000, -739.500000,  52.500000,  -1.425289, 138.312272,  28.341270,   0.342113,   0.907103,   0.224473,   0.098369, 
21403,   0.182346,   6.182374,  -7.600984,  56.049368,  -0.514588,   0.599072,   0.169462,  -0.887580,   0.420475, -75.000000, -735.000000,  52.500000,  -1.412194, 138.925632,  28.290346,   0.337325,   0.909020,   0.224633,   0.096914, 
21404,   0.196315,   6.137321,  -7.589960,  53.869984,  -0.537627,   0.524370,   0.181258,  -0.879346,   0.433946, -69.000000, -732.000000,  57.000000,  -1.401931, 139.512592,  28.250786,   0.332719,   0.910808,   0.224843,   0.095565, 
21405,   0.196893,   6.149138,  -7.555783,  52.454848,  -0.459422,   0.490830,   0.187413,  -0.874008,   0.433876, -66.000000, -730.500000,  57.000000,  -1.392534, 140.067152,  28.228054,   0.328343,   0.912442,   0.225148,   0.094336, 
21406,   0.195048,   6.195081,  -7.506126,  52.118400,  -0.515900,   0.505460,   0.172752,  -0.877080,   0.440033, -73.500000, -730.500000,  58.500000,  -1.384948, 140.593456,  28.200614,   0.324192,   0.914005,   0.225386,   0.093165, 
21407,   0.171658,   6.130812,  -7.532377,  52.667612,  -0.546572,   0.553513,   0.162673,  -0.887757,   0.467653, -78.000000, -732.000000,  67.500000,  -1.377259, 141.114224,  28.157224,   0.320082,   0.915538,   0.225479,   0.091955, 
21408,   0.206722,   6.002679,  -7.661974,  52.831316,  -0.499753,   0.504898,   0.163032,  -0.883322,   0.468230, -78.000000, -730.500000,  67.500000,  -1.370555, 141.646992,  28.105102,   0.315877,   0.917117,   0.225506,   0.090709, 
21409,   0.181066,   5.866016,  -7.803701,  52.172728,  -0.427117,   0.496032,   0.169870,  -0.874725,   0.450010, -75.000000, -729.000000,  61.500000,  -1.362076, 142.190320,  28.048440,   0.311588,   0.918715,   0.225504,   0.089418, 
21410,   0.197752,   5.769815,  -7.941347,  51.080092,  -0.433279,   0.539004,   0.178410,  -0.871378,   0.463228, -70.500000, -727.500000,  66.000000,  -1.351969, 142.731760,  27.996464,   0.307300,   0.920260,   0.225531,   0.088129, 
21411,   0.169630,   5.612281,  -8.046320,  49.042696,  -0.467299,   0.507252,   0.176262,  -0.857346,   0.484012, -72.000000, -721.500000,  72.000000,  -1.341102, 143.270832,  27.951810,   0.303026,   0.921785,   0.225615,   0.086863, 
21412,   0.195463,   5.598621,  -8.031187,  47.044524,  -0.397748,   0.451663,   0.182962,  -0.843951,   0.489634, -69.000000, -717.000000,  73.500000,  -1.331024, 143.784576,  27.920166,   0.298932,   0.923184,   0.225772,   0.085686, 
21413,   0.185710,   5.638987,  -8.037264,  45.730140,  -0.452109,   0.440086,   0.183867,  -0.831459,   0.495904, -69.000000, -712.500000,  75.000000,  -1.320592, 144.267008,  27.904142,   0.295074,   0.924455,   0.226028,   0.084609, 
21414,   0.203123,   5.554902,  -8.052994,  44.674952,  -0.338782,   0.478825,   0.171745,  -0.838515,   0.501160, -75.000000, -714.000000,  76.500000,  -1.311155, 144.733472,  27.882128,   0.291348,   0.925698,   0.226220,   0.083557, 
21415,   0.158712,   4.797200,  -8.948204,  40.701004,  -0.345959,   0.378833,   0.172867,  -0.857435,   0.507601, -73.500000, -720.000000,  79.500000,  -1.304438, 145.203184,  27.815964,   0.287609,   0.927001,   0.226040,   0.082408, 
21416,   0.192953,   5.349166,  -8.299899,  33.805600,  -0.164150,   0.162019,   0.172696,  -0.858249,   0.512138, -73.500000, -720.000000,  81.000000,  -1.299179, 145.588400,  27.756648,   0.284542,   0.928071,   0.225847,   0.081458, 
21417,   0.117229,   5.509156,  -8.123371,  32.389114,  -0.287634,   0.311511,   0.180098,  -0.838789,   0.509263, -70.500000, -714.000000,  79.500000,  -1.287247, 145.921648,  27.718792,   0.281894,   0.928966,   0.225807,   0.080611, 
21418,   0.209141,   5.384228,  -8.123296,  31.649096,  -0.229062,   0.415603,   0.186969,  -0.824580,   0.510347, -67.500000, -709.500000,  79.500000,  -1.276603, 146.247168,  27.697828,   0.279293,   0.929811,   0.225894,   0.079833, 
21419,   0.213979,   5.567269,  -8.054085,  31.881376,  -0.221750,   0.209421,   0.175035,  -0.828015,   0.520718, -73.500000, -709.500000,  82.500000,  -1.281632, 146.548240,  27.683748,   0.276846,   0.930560,   0.225973,   0.079245, 
21420,   0.143735,   5.524791,  -7.938375,  33.494674,  -0.295438,   0.443459,   0.179243,  -0.842862,   0.531950, -70.500000, -714.000000,  87.000000,  -1.271079, 146.839760,  27.657418,   0.274515,   0.931302,   0.225985,   0.078520, 
21421,   0.245082,   5.340187,  -8.034533,  35.272764,  -0.255347,   0.385432,   0.182344,  -0.835983,   0.546394, -69.000000, -711.000000,  91.500000,  -1.275485, 147.164768,  27.636990,   0.271878,   0.932120,   0.226030,   0.077867, 
21422,   0.140132,   5.347912,  -8.145671,  36.552960,  -0.187139,   0.383342,   0.171657,  -0.825297,   0.553960, -75.000000, -706.500000,  93.000000,  -1.270603, 147.508768,  27.613720,   0.269106,   0.932984,   0.226087,   0.077094, 
21423,   0.218604,   5.231755,  -8.137493,  37.693368,  -0.358733,   0.392856,   0.166561,  -0.820135,   0.546111, -78.000000, -705.000000,  90.000000,  -1.268812, 147.865968,  27.581382,   0.266221,   0.933879,   0.226066,   0.076299, 
21424,   0.165084,   5.104532,  -8.245979,  38.802256,  -0.245658,   0.389675,   0.172716,  -0.814797,   0.546040, -75.000000, -703.500000,  90.000000,  -1.265309, 148.246672,  27.544470,   0.263146,   0.934820,   0.226023,   0.075434, 
21425,   0.219440,   5.128665,  -8.313427,  39.050824,  -0.308978,   0.295556,   0.173278,  -0.803934,   0.561385, -75.000000, -699.000000,  94.500000,  -1.259936, 148.633360,  27.515174,   0.260020,   0.935760,   0.226050,   0.074561, 
21426,   0.183487,   5.080208,  -8.234645,  39.540040,  -0.309324,   0.448889,   0.173311,  -0.798321,   0.580690, -75.000000, -696.000000, 100.500000,  -1.256605, 149.015296,  27.495772,   0.256923,   0.936671,   0.226149,   0.073737, 
21427,   0.184615,   5.231710,  -8.039779,  41.352268,  -0.287015,   0.408329,   0.179979,  -0.790539,   0.567007, -72.000000, -694.500000,  96.000000,  -1.254319, 149.379152,  27.485328,   0.253956,   0.937491,   0.226300,   0.072976, 
21428,   0.162395,   5.250649,  -8.006882,  45.274948,  -0.437592,   0.562006,   0.180696,  -0.781668,   0.568162, -72.000000, -691.500000,  96.000000,  -1.255867, 149.749504,  27.478880,   0.250924,   0.938315,   0.226477,   0.072242, 
21429,   0.229584,   5.141659,  -8.014128,  49.644228,  -0.607718,   0.572305,   0.180337,  -0.786104,   0.567585, -72.000000, -693.000000,  96.000000,  -1.262605, 150.164432,  27.470476,   0.247518,   0.939243,   0.226655,   0.071459, 
21430,   0.170442,   4.970727,  -8.122095,  53.886704,  -0.563779,   0.637228,   0.174900,  -0.782571,   0.568810, -75.000000, -691.500000,  96.000000,  -1.260618, 150.634800,  27.461606,   0.243671,   0.940273,   0.226879,   0.070493, 
21431,   0.215947,   4.755308,  -8.366822,  56.858256,  -0.516808,   0.723016,   0.175634,  -0.770893,   0.579618, -75.000000, -687.000000,  99.000000,  -1.258797, 151.166544,  27.451460,   0.239312,   0.941402,   0.227121,   0.069403, 
21432,   0.189344,   4.518281,  -8.593214,  58.146064,  -0.555596,   0.675593,   0.178018,  -0.772885,   0.592906, -73.500000, -687.000000, 103.500000,  -1.255026, 151.749904,  27.440724,   0.234534,   0.942640,   0.227394,   0.068194, 
21433,   0.136868,   4.401601,  -8.653881,  57.871492,  -0.546481,   0.594404,   0.178035,  -0.770079,   0.602559, -73.500000, -685.500000, 106.500000,  -1.239883, 152.347280,  27.418448,   0.229658,   0.943877,   0.227592,   0.066837, 
21434,   0.213234,   4.337130,  -8.788504,  57.253488,  -0.527566,   0.535714,   0.182571,  -0.745458,   0.619312, -72.000000, -676.500000, 111.000000,  -1.233342, 152.943584,  27.395810,   0.224770,   0.945104,   0.227763,   0.065554, 
21435,   0.148211,   4.257665,  -8.813830,  56.531604,  -0.579190,   0.552953,   0.191452,  -0.740482,   0.623455, -67.500000, -675.000000, 112.500000,  -1.220550, 153.528736,  27.385890,   0.219973,   0.946257,   0.228039,   0.064266, 
21436,   0.220565,   4.091951,  -8.835830,  55.741724,  -0.550285,   0.631794,   0.181512,  -0.755958,   0.627232, -72.000000, -679.500000, 114.000000,  -1.214781, 154.112976,  27.358992,   0.215171,   0.947410,   0.228151,   0.063003, 
21437,   0.153026,   4.042771,  -8.935515,  54.960116,  -0.575440,   0.579222,   0.179535,  -0.741111,   0.643479, -73.500000, -673.500000, 118.500000,  -1.204300, 154.688080,  27.336402,   0.210451,   0.948537,   0.228301,   0.061731, 
21438,   0.191987,   3.817120,  -9.066395,  53.337644,  -0.518285,   0.588473,   0.177696,  -0.731062,   0.635883, -75.000000, -670.500000, 115.500000,  -1.194374, 155.266032,  27.325828,   0.205686,   0.949586,   0.228535,   0.060476, 
21439,   0.273583,   4.043921,  -8.545696,  52.410452,  -0.525984,   0.404063,   0.175344,  -0.723457,   0.641899, -76.500000, -667.500000, 117.000000,  -1.193691, 155.803312,  27.316394,   0.201239,   0.950564,   0.228741,   0.059382, 
21440,   0.093251,   3.996243,  -8.888778,  54.703548,  -0.486430,   0.473542,   0.178975,  -0.711328,   0.652383, -75.000000, -663.000000, 120.000000,  -1.180249, 156.326512,  27.309002,   0.196928,   0.951485,   0.228972,   0.058213, 
21441,   0.201608,   3.494308,  -9.317952,  52.968780,  -0.463591,   0.681113,   0.178805,  -0.712143,   0.656920, -75.000000, -663.000000, 121.500000,  -1.159631, 156.904048,  27.298176,   0.192176,   0.952472,   0.229206,   0.056868, 
21442,   0.230035,   3.353714,  -9.406362,  49.250616,  -0.482815,   0.465752,   0.182794,  -0.695578,   0.667981, -73.500000, -657.000000, 124.500000,  -1.162908, 157.486512,  27.287354,   0.187334,   0.953476,   0.229401,   0.055713, 
21443,   0.005903,   3.423866,  -9.461688,  45.103800,  -0.393213,   0.465176,   0.183357,  -0.684715,   0.683326, -73.500000, -652.500000, 129.000000,  -1.127931, 158.008656,  27.278492,   0.183060,   0.954310,   0.229632,   0.054361, 
21444,   0.326986,   3.120103,  -9.514388,  40.553328,  -0.293320,   0.556069,   0.185725,  -0.689514,   0.686962, -72.000000, -654.000000, 130.500000,  -1.126454, 158.504048,  27.268402,   0.178940,   0.955114,   0.229783,   0.053340, 
21445,   0.120616,   3.257898,  -9.440290,  36.852212,  -0.339671,   0.262087,   0.180646,  -0.681546,   0.688765, -75.000000, -651.000000, 130.500000,  -1.117026, 158.947072,  27.246586,   0.175278,   0.955852,   0.229824,   0.052340, 
21446,   0.155448,   3.324005,  -9.333232,  33.808340,  -0.305575,   0.535697,   0.180663,  -0.678739,   0.698418, -75.000000, -649.500000, 133.500000,  -1.099740, 159.327056,  27.228302,   0.172148,   0.956447,   0.229867,   0.051405, 
21447,   0.251022,   3.146163,  -9.380378,  31.641150,  -0.176020,   0.346835,   0.178807,  -0.671497,   0.681169, -76.500000, -648.000000, 127.500000,  -1.101446, 159.690496,  27.220084,   0.169114,   0.957002,   0.229957,   0.050678, 
21448,   0.139839,   3.327146,  -9.292953,  29.802168,  -0.210377,   0.338536,   0.176985,  -0.658642,   0.683226, -78.000000, -643.500000, 127.500000,  -1.095237, 160.016256,  27.213336,   0.166409,   0.957497,   0.230054,   0.049963, 
21449,   0.148060,   3.308189,  -9.215790,  28.594154,  -0.035996,   0.263538,   0.177001,  -0.655836,   0.692878, -78.000000, -642.000000, 130.500000,  -1.085977, 160.308224,  27.207130,   0.163993,   0.957939,   0.230145,   0.049291, 
21450,   0.321347,   2.967099,  -9.563059,  27.543478,  -0.133976,   0.345955,   0.176626,  -0.663078,   0.682648, -78.000000, -645.000000, 127.500000,  -1.093904, 160.618480,  27.200840,   0.161383,   0.958383,   0.230211,   0.048724, 
21451,   0.098286,   3.113461,  -9.575113,  21.081662,   0.087322,   0.122048,   0.181209,  -0.670683,   0.704110, -75.000000, -646.500000, 135.000000,  -1.083499, 160.876656,  27.192348,   0.159247,   0.958753,   0.230263,   0.048106, 
21452,   0.234117,   3.252179,  -9.013744,  21.574172,  -0.192764,   0.078016,   0.177594,  -0.680005,   0.703279, -76.500000, -649.500000, 135.000000,  -1.094553, 161.078576,  27.188218,   0.157536,   0.959043,   0.230297,   0.047787, 
21453,   0.044934,   3.537957,  -8.933713,  24.308618,  -0.079484,   0.267772,   0.181209,  -0.670683,   0.704110, -75.000000, -646.500000, 135.000000,  -1.088306, 161.253904,  27.185400,   0.156083,   0.959289,   0.230355,   0.047379, 
21454,   0.262970,   3.195268,  -8.978945,  27.031696,  -0.172405,   0.331898,   0.184995,  -0.660546,   0.700404, -73.500000, -643.500000, 133.500000,  -1.091387, 161.480384,  27.180680,   0.154184,   0.959612,   0.230406,   0.046943, 
21455,   0.154553,   3.296409,  -8.933061,  29.511504,  -0.198546,   0.201132,   0.188797,  -0.647602,   0.706350, -72.000000, -639.000000, 135.000000,  -1.094285, 161.731552,  27.176328,   0.152077,   0.959967,   0.230470,   0.046457, 
21456,   0.111322,   3.443567,  -8.847184,  32.840210,  -0.201345,   0.379901,   0.182317,  -0.651763,   0.725147, -75.000000, -639.000000, 141.000000,  -1.083728, 161.981168,  27.171926,   0.150008,   0.960291,   0.230546,   0.045860, 
21457,   0.235727,   3.305121,  -8.710548,  37.496604,  -0.278090,   0.418230,   0.182130,  -0.655384,   0.720033, -75.000000, -640.500000, 139.500000,  -1.097048, 162.269936,  27.166120,   0.147561,   0.960675,   0.230593,   0.045383, 
21458,   0.106865,   3.373342,  -8.642149,  43.593536,  -0.392152,   0.378934,   0.183906,  -0.636013,   0.713268, -75.000000, -634.500000, 136.500000,  -1.096139, 162.641136,  27.159930,   0.144453,   0.961162,   0.230688,   0.044621, 
21459,   0.192328,   3.223820,  -8.749288,  49.723420,  -0.412130,   0.585355,   0.181570,  -0.625602,   0.728937, -76.500000, -630.000000, 141.000000,  -1.097315, 163.075712,  27.152708,   0.140809,   0.961731,   0.230797,   0.043747, 
21460,   0.188874,   2.902931,  -8.947697,  54.773744,  -0.614802,   0.529087,   0.187024,  -0.626328,   0.737363, -73.500000, -630.000000, 144.000000,  -1.099522, 163.560048,  27.144696,   0.136740,   0.962322,   0.230907,   0.042780, 
21461,   0.111933,   2.779854,  -9.116091,  57.673928,  -0.554978,   0.583373,   0.193879,  -0.614925,   0.728796, -70.500000, -627.000000, 141.000000,  -1.090511, 164.100992,  27.136268,   0.132217,   0.962972,   0.231046,   0.041604, 
21462,   0.165016,   2.546446,  -9.272838,  59.178036,  -0.616864,   0.562098,   0.191869,  -0.605691,   0.725737, -72.000000, -624.000000, 139.500000,  -1.080195, 164.682976,  27.127654,   0.127350,   0.963655,   0.231196,   0.040334, 
21463,   0.168664,   2.449087,  -9.323631,  60.052332,  -0.587230,   0.565487,   0.186277,  -0.600166,   0.741153, -75.000000, -621.000000, 144.000000,  -1.074345, 165.281824,  27.118244,   0.122326,   0.964314,   0.231328,   0.039065, 
21464,   0.111656,   2.339893,  -9.374623,  60.704604,  -0.612070,   0.640888,   0.184129,  -0.586134,   0.761936, -76.500000, -615.000000, 150.000000,  -1.060307, 165.887280,  27.108832,   0.117263,   0.964979,   0.231471,   0.037715, 
21465,   0.192880,   2.209780,  -9.387942,  61.013716,  -0.606607,   0.688872,   0.190830,  -0.572739,   0.767559, -73.500000, -610.500000, 151.500000,  -1.054171, 166.503232,  27.098914,   0.112088,   0.965599,   0.231589,   0.036409, 
21466,   0.154328,   2.086663,  -9.442675,  61.680800,  -0.693263,   0.665671,   0.190813,  -0.575545,   0.757906, -73.500000, -612.000000, 148.500000,  -1.047393, 167.123648,  27.089332,   0.106876,   0.966218,   0.231711,   0.035088, 
21467,   0.144246,   1.990338,  -9.489372,  61.881596,  -0.555399,   0.655828,   0.185188,  -0.575634,   0.754017, -76.500000, -612.000000, 147.000000,  -1.034031, 167.752000,  27.079772,   0.101606,   0.966802,   0.231830,   0.033696, 
21468,   0.153995,   1.877696,  -9.491606,  62.039224,  -0.725660,   0.676780,   0.193557,  -0.573102,   0.771772, -72.000000, -610.500000, 153.000000,  -1.026093, 168.382608,  27.069848,   0.096303,   0.967366,   0.231935,   0.032344, 
21469,   0.159575,   1.819508,  -9.496456,  62.491004,  -0.574250,   0.723127,   0.194119,  -0.562239,   0.787117, -72.000000, -606.000000, 157.500000,  -1.018231, 169.009904,  27.059994,   0.091025,   0.967901,   0.232033,   0.031000, 
21470,   0.155756,   1.689145,  -9.507983,  62.810448,  -0.687577,   0.740104,   0.196237,  -0.541239,   0.771277, -72.000000, -600.000000, 151.500000,  -1.011332, 169.642256,  27.050216,   0.085699,   0.968402,   0.232122,   0.029654, 
21471,   0.149902,   1.539514,  -9.533898,  63.065924,  -0.629274,   0.658859,   0.191892,  -0.521594,   0.783888, -75.000000, -592.500000, 154.500000,  -1.000801, 170.284304,  27.040432,   0.080297,   0.968897,   0.232212,   0.028257, 
21472,   0.165875,   1.456811,  -9.584001,  63.408988,  -0.683733,   0.600750,   0.197346,  -0.522320,   0.792315, -72.000000, -592.500000, 157.500000,  -0.992018, 170.927440,  27.031158,   0.074876,   0.969338,   0.232292,   0.026873, 
21473,   0.123238,   1.367657,  -9.532444,  63.658080,  -0.666190,   0.664727,   0.194807,  -0.518335,   0.793216, -73.500000, -591.000000, 157.500000,  -0.978982, 171.570208,  27.022222,   0.069468,   0.969778,   0.232376,   0.025454, 
21474,   0.141368,   1.272461,  -9.542407,  64.354132,  -0.614286,   0.690723,   0.189931,  -0.503940,   0.809787, -76.500000, -585.000000, 162.000000,  -0.970679, 172.214480,  27.013074,   0.064032,   0.970153,   0.232438,   0.024071, 
21475,   0.155490,   1.197409,  -9.571271,  65.152236,  -0.678752,   0.620043,   0.196616,  -0.493351,   0.805756, -73.500000, -582.000000, 160.500000,  -0.962197, 172.866368,  27.004242,   0.058532,   0.970533,   0.232505,   0.022673, 
21476,   0.132547,   1.127009,  -9.478834,  66.130852,  -0.698344,   0.708802,   0.194418,  -0.487738,   0.797583, -75.000000, -580.500000, 157.500000,  -0.950257, 173.519056,  26.994976,   0.053028,   0.970856,   0.232554,   0.021242, 
21477,   0.167900,   1.014577,  -9.473336,  67.883304,  -0.640270,   0.676922,   0.192237,  -0.479319,   0.799062, -76.500000, -577.500000, 157.500000,  -0.942613, 174.184160,  26.985688,   0.047410,   0.971175,   0.232601,   0.019823, 
21478,   0.136761,   0.874125,  -9.507893,  69.445512,  -0.696847,   0.754047,   0.193158,  -0.464020,   0.814984, -76.500000, -571.500000, 162.000000,  -0.933928, 174.868880,  26.976310,   0.041625,   0.971452,   0.232637,   0.018356, 
21479,   0.110767,   0.730009,  -9.489890,  71.077360,  -0.664838,   0.789999,   0.209628,  -0.435964,   0.821367, -69.000000, -562.500000, 163.500000,  -0.921292, 175.571648,  26.966656,   0.035694,   0.971716,   0.232670,   0.016819, 
21480,   0.125466,   0.652586,  -9.516391,  72.321800,  -0.738849,   0.793690,   0.212510,  -0.438320,   0.811390, -67.500000, -564.000000, 160.500000,  -0.910654, 176.287536,  26.956618,   0.029646,   0.971933,   0.232686,   0.015272, 
21481,   0.123404,   0.532531,  -9.461013,  74.176008,  -0.814538,   0.743149,   0.197678,  -0.442206,   0.822085, -75.000000, -564.000000, 163.500000,  -0.900422, 177.016624,  26.946662,   0.023483,   0.972132,   0.232699,   0.013703, 
21482,   0.127536,   0.410178,  -9.453983,  76.477440,  -0.801693,   0.812245,   0.194407,  -0.409254,   0.836428, -78.000000, -552.000000, 166.500000,  -0.889704, 177.764896,  26.936724,   0.017158,   0.972275,   0.232699,   0.012091, 
21483,   0.126295,   0.242453,  -9.505450,  78.435264,  -0.806046,   0.842439,   0.198943,  -0.384633,   0.853181, -76.500000, -543.000000, 171.000000,  -0.876912, 178.539728,  26.926842,   0.010610,   0.972404,   0.232696,   0.010408, 
21484,   0.112903,   0.041688,  -9.558212,  79.809224,  -0.809264,   0.831409,   0.199285,  -0.383004,   0.844107, -76.500000, -543.000000, 168.000000,  -0.861561, 179.339888,  26.916922,   0.003852,   0.972460,   0.232677,   0.008652, 
21485,   0.158841,  -0.160497,  -9.612303,  80.787904,  -0.819871,   0.937734,   0.193473,  -0.386713,   0.835102, -79.500000, -544.500000, 165.000000,  -0.850330, -179.841376,  26.906808,   0.003072,  -0.972496,  -0.232649,  -0.006894, 
21486,   0.135496,  -0.299210,  -9.645620,  80.959176,  -0.892136,   0.799090,   0.190470,  -0.376754,   0.878573, -81.000000, -538.500000, 178.500000,  -0.836849, -179.013680,  26.896310,   0.010068,  -0.972463,  -0.232601,  -0.005100, 
21487,   0.113737,  -0.432713,  -9.624038,  81.379560,  -0.910253,   0.925240,   0.197637,  -0.328689,   0.865875, -79.500000, -523.500000, 172.500000,  -0.820984, -178.183584,  26.886522,   0.017080,  -0.972386,  -0.232547,  -0.003282, 
21488,   0.114095,  -0.520338,  -9.535570,  82.032056,  -0.938806,   0.853595,   0.202327,  -0.306060,   0.868438, -78.000000, -516.000000, 172.500000,  -0.805568, -177.354736,  26.876722,   0.024082,  -0.972266,  -0.232481,  -0.001471, 
21489,   0.116847,  -0.616229,  -9.455942,  83.372392,  -0.870866,   0.826052,   0.203419,  -0.289947,   0.879823, -78.000000, -510.000000, 175.500000,  -0.791171, -176.521696,  26.867286,   0.031120,  -0.972076,  -0.232399,   0.000338, 
21490,   0.123152,  -0.792343,  -9.461327,  85.003176,  -0.945523,   0.877503,   0.200692,  -0.289584,   0.875610, -79.500000, -510.000000, 174.000000,  -0.777872, -175.670768,  26.857734,   0.038311,  -0.971853,  -0.232309,   0.002173, 
21491,   0.133100,  -1.013855,  -9.531044,  86.333880,  -0.975157,   0.900339,   0.207376,  -0.278995,   0.871579, -76.500000, -507.000000, 172.500000,  -0.763244, -174.797136,  26.848366,   0.045689,  -0.971544,  -0.232198,   0.004064, 
21492,   0.119782,  -1.166828,  -9.544231,  86.909136,  -0.967021,   1.011256,   0.205741,  -0.262519,   0.878751, -78.000000, -501.000000, 174.000000,  -0.746708, -173.908576,  26.838250,   0.053189,  -0.971183,  -0.232067,   0.006000, 
21493,   0.093277,  -1.380483,  -9.628377,  86.874856,  -0.985489,   0.862600,   0.207768,  -0.268947,   0.891461, -76.500000, -502.500000, 178.500000,  -0.727996, -173.014720,  26.828596,   0.060726,  -0.970776,  -0.231925,   0.007964, 
21494,   0.090650,  -1.510545,  -9.592485,  86.643256,  -0.958280,   0.860533,   0.217008,  -0.259536,   0.896182, -72.000000, -499.500000, 180.000000,  -0.710086, -172.124256,  26.819842,   0.068232,  -0.970281,  -0.231768,   0.009912, 
21495,   0.108994,  -1.595292,  -9.502110,  86.617640,  -0.949459,   0.834298,   0.216399,  -0.238173,   0.876129, -73.500000, -493.500000, 172.500000,  -0.694585, -171.239136,  26.811154,   0.075694,  -0.969750,  -0.231602,   0.011828, 
21496,   0.131533,  -1.725457,  -9.465442,  86.943920,  -0.931823,   0.951344,   0.216774,  -0.230931,   0.886359, -73.500000, -490.500000, 175.500000,  -0.680387, -170.355200,  26.802346,   0.083145,  -0.969163,  -0.231421,   0.013728, 
21497,   0.111822,  -1.874447,  -9.382476,  87.811016,  -0.951519,   0.969249,   0.218395,  -0.209568,   0.893784, -73.500000, -483.000000, 177.000000,  -0.665193, -169.464288,  26.793612,   0.090647,  -0.968500,  -0.231220,   0.015648, 
21498,   0.091962,  -2.016760,  -9.394525,  88.557464,  -1.024544,   0.941364,   0.206757,  -0.179148,   0.890371, -81.000000, -472.500000, 174.000000,  -0.646777, -168.567472,  26.784976,   0.098190,  -0.967793,  -0.231004,   0.017605, 
21499,   0.110569,  -2.219980,  -9.397672,  89.057824,  -0.984156,   0.946626,   0.206774,  -0.176341,   0.900024, -81.000000, -471.000000, 177.000000,  -0.629698, -167.660352,  26.776416,   0.105814,  -0.967003,  -0.230769,   0.019569, 
21500,   0.073385,  -2.381845,  -9.414977,  89.270520,  -0.981398,   1.002203,   0.212569,  -0.175439,   0.899376, -78.000000, -471.000000, 177.000000,  -0.610103, -166.746960,  26.767876,   0.113480,  -0.966147,  -0.230514,   0.021565, 
21501,   0.115076,  -2.564099,  -9.373217,  88.912952,  -0.959871,   0.991877,   0.219270,  -0.162043,   0.904997, -75.000000, -466.500000, 178.500000,  -0.594400, -165.830960,  26.759162,   0.121172,  -0.965245,  -0.230247,   0.023530, 
21502,   0.075704,  -2.737613,  -9.406349,  88.326760,  -0.908417,   0.932182,   0.230115,  -0.134076,   0.907490, -70.500000, -457.500000, 178.500000,  -0.576791, -164.918976,  26.751298,   0.128815,  -0.964262,  -0.229965,   0.025501, 
21503,   0.085283,  -2.889073,  -9.400415,  87.416848,  -0.980785,   0.866721,   0.223897,  -0.109995,   0.893200, -75.000000, -450.000000, 172.500000,  -0.559433, -164.013712,  26.743662,   0.136396,  -0.963233,  -0.229671,   0.027454, 
21504,   0.076882,  -3.075074,  -9.389457,  86.196368,  -0.974494,   0.968459,   0.214098,  -0.089624,   0.897384, -81.000000, -442.500000, 172.500000,  -0.540916, -163.119216,  26.736406,   0.143878,  -0.962177,  -0.229370,   0.029393, 
21505,   0.088121,  -3.226927,  -9.352362,  84.570128,  -0.926630,   0.898210,   0.222979,  -0.084648,   0.901527, -76.500000, -441.000000, 174.000000,  -0.523404, -162.237552,  26.729296,   0.151241,  -0.961046,  -0.229051,   0.031294, 
21506,   0.080021,  -3.371198,  -9.360717,  82.977568,  -0.843025,   0.874415,   0.232032,  -0.078858,   0.901132, -72.000000, -439.500000, 174.000000,  -0.506610, -161.373680,  26.722382,   0.158451,  -0.959903,  -0.228729,   0.033151, 
21507,   0.103574,  -3.465618,  -9.270047,  81.265728,  -0.855984,   0.855327,   0.225489,  -0.053599,   0.905569, -76.500000, -430.500000, 174.000000,  -0.492707, -160.527728,  26.715870,   0.165508,  -0.958729,  -0.228405,   0.034945, 
21508,   0.090949,  -3.555914,  -9.200236,  79.911584,  -0.880665,   0.831268,   0.223650,  -0.043551,   0.897973, -78.000000, -427.500000, 171.000000,  -0.478234, -159.701648,  26.709996,   0.172387,  -0.957520,  -0.228074,   0.036703, 
21509,   0.067844,  -3.683156,  -9.152955,  78.755480,  -0.739321,   0.891634,   0.224742,  -0.027438,   0.909358, -78.000000, -421.500000, 174.000000,  -0.461850, -158.891328,  26.704608,   0.179127,  -0.956311,  -0.227743,   0.038444, 
21510,   0.074747,  -3.840236,  -9.120289,  77.558584,  -0.884100,   0.840097,   0.229090,  -0.006438,   0.920996, -76.500000, -414.000000, 177.000000,  -0.446558, -158.091072,  26.698764,   0.185769,  -0.955038,  -0.227391,   0.040151, 
21511,   0.078026,  -3.920754,  -9.082220,  76.145016,  -0.757851,   0.731035,   0.224353,   0.003158,   0.913725, -79.500000, -411.000000, 174.000000,  -0.431435, -157.305312,  26.693868,   0.192287,  -0.953767,  -0.227047,   0.041827, 
21512,   0.070802,  -4.045482,  -9.008917,  74.837496,  -0.780217,   0.794560,   0.228277,   0.008497,   0.886176, -78.000000, -411.000000, 165.000000,  -0.416717, -156.534704,  26.689176,   0.198668,  -0.952461,  -0.226695,   0.043467, 
21513,   0.064439,  -4.082398,  -8.846365,  73.885048,  -0.799790,   0.790489,   0.232251,   0.022255,   0.887584, -76.500000, -406.500000, 165.000000,  -0.402389, -155.777088,  26.684612,   0.204935,  -0.951146,  -0.226340,   0.045076, 
21514,   0.055992,  -3.934081,  -8.506131,  75.103384,  -0.816533,   0.770736,   0.231162,   0.046787,   0.900448, -78.000000, -397.500000, 168.000000,  -0.388719, -155.033904,  26.680576,   0.211074,  -0.949810,  -0.225984,   0.046648, 
21515,   0.073722,  -3.949068,  -8.253942,  79.120688,  -0.858760,   0.893535,   0.238017,   0.058190,   0.891880, -75.000000, -394.500000, 165.000000,  -0.376372, -154.265952,  26.676124,   0.217412,  -0.948387,  -0.225606,   0.048256, 
21516,   0.068677,  -4.061290,  -8.131368,  84.084224,  -0.943017,   0.954453,   0.235461,   0.059368,   0.883129, -76.500000, -394.500000, 162.000000,  -0.365223, -153.448224,  26.671388,   0.224156,  -0.946834,  -0.225197,   0.049948, 
21517,   0.051464,  -4.261163,  -8.161993,  88.776080,  -0.912273,   0.960271,   0.237612,   0.085981,   0.886594, -76.500000, -385.500000, 162.000000,  -0.349934, -152.580064,  26.666840,   0.231293,  -0.945115,  -0.224741,   0.051769, 
21518,   0.052115,  -4.566290,  -8.229803,  92.558392,  -1.086643,   1.036553,   0.244483,   0.100190,   0.887679, -73.500000, -381.000000, 162.000000,  -0.332343, -151.660032,  26.662082,   0.238844,  -0.943255,  -0.224245,   0.053707, 
21519,   0.031099,  -4.818133,  -8.304689,  94.644264,  -1.091873,   0.952102,   0.238687,   0.099287,   0.888326, -76.500000, -381.000000, 162.000000,  -0.311344, -150.706256,  26.657920,   0.246648,  -0.941253,  -0.223711,   0.055735, 
21520,   0.057800,  -5.013564,  -8.276688,  95.478288,  -1.057437,   1.104050,   0.230368,   0.105175,   0.899529, -81.000000, -378.000000, 165.000000,  -0.292810, -149.734848,  26.653578,   0.254582,  -0.939139,  -0.223152,   0.057771, 
21521,   0.066134,  -5.141567,  -8.171402,  96.231728,  -1.103031,   1.031280,   0.242256,   0.140836,   0.884449, -76.500000, -367.500000, 159.000000,  -0.274895, -148.755264,  26.649602,   0.262570,  -0.936953,  -0.222578,   0.059814, 
21522,   0.043608,  -5.316928,  -8.130640,  96.756712,  -1.167154,   1.098779,   0.250170,   0.162739,   0.867961, -73.500000, -361.500000, 153.000000,  -0.254640, -147.768832,  26.646328,   0.270591,  -0.934683,  -0.221982,   0.061886, 
21523,   0.036157,  -5.557519,  -8.142532,  96.758472,  -1.096306,   1.037203,   0.236943,   0.177408,   0.876428, -81.000000, -355.500000, 154.500000,  -0.234416, -146.778048,  26.643020,   0.278622,  -0.932316,  -0.221360,   0.063959, 
21524,   0.034870,  -5.735858,  -8.135122,  95.847736,  -1.049769,   1.029930,   0.233281,   0.200312,   0.870889, -84.000000, -348.000000, 151.500000,  -0.215497, -145.792992,  26.640294,   0.286591,  -0.929905,  -0.220733,   0.066007, 
21525,   0.022637,  -5.898909,  -8.134144,  94.173336,  -1.037068,   1.020413,   0.237768,   0.216514,   0.858685, -82.500000, -343.500000, 147.000000,  -0.194480, -144.822640,  26.637660,   0.294422,  -0.927478,  -0.220095,   0.068038, 
21526,   0.038974,  -6.012628,  -8.030230,  91.872384,  -0.987241,   1.030762,   0.243906,   0.219046,   0.848962, -79.500000, -343.500000, 144.000000,  -0.176032, -143.875280,  26.635224,   0.302041,  -0.925015,  -0.219454,   0.069996, 
21527,   0.048606,  -6.121650,  -7.895085,  90.094496,  -1.027907,   0.975642,   0.245666,   0.235610,   0.832545, -79.500000, -339.000000, 138.000000,  -0.161566, -142.948192,  26.633132,   0.309488,  -0.922554,  -0.218824,   0.071880, 
21528,   0.023708,  -6.238693,  -7.821580,  88.411208,  -1.041743,   0.991664,   0.247800,   0.259417,   0.826357, -79.500000, -331.500000, 135.000000,  -0.144220, -142.041568,  26.631828,   0.316751,  -0.920107,  -0.218194,   0.073746, 
21529,   0.032351,  -6.371797,  -7.762590,  86.677400,  -0.957737,   0.982759,   0.257415,   0.276070,   0.841308, -75.000000, -325.500000, 139.500000,  -0.128832, -141.153392,  26.630048,   0.323840,  -0.917623,  -0.217555,   0.075552, 
21530,   0.024507,  -6.498226,  -7.762735,  84.273880,  -0.881610,   0.870605,   0.251977,   0.279602,   0.842533, -78.000000, -324.000000, 139.500000,  -0.112866, -140.289920,  26.628922,   0.330717,  -0.915174,  -0.216925,   0.077314, 
21531,   0.019779,  -6.631945,  -7.661943,  81.662984,  -0.911067,   0.893536,   0.248892,   0.275530,   0.837742, -79.500000, -325.500000, 138.000000,  -0.097909, -139.452384,  26.628000,   0.337371,  -0.912748,  -0.216304,   0.079014, 
21532,   0.029530,  -6.770400,  -7.588784,  78.812728,  -0.851597,   0.802273,   0.255934,   0.290554,   0.834289, -76.500000, -321.000000, 136.500000,  -0.083315, -138.639712,  26.627556,   0.343806,  -0.910337,  -0.215689,   0.080660, 
21533,   0.040438,  -6.829022,  -7.548611,  75.738240,  -0.871160,   0.811570,   0.263506,   0.310828,   0.826876, -73.500000, -315.000000, 133.500000,  -0.071642, -137.864000,  26.627758,   0.349944,  -0.908012,  -0.215108,   0.082213, 
21534,  -0.005412,  -6.948916,  -7.483526,  72.682088,  -0.784317,   0.762040,   0.263085,   0.335811,   0.811938, -75.000000, -307.500000, 127.500000,  -0.056390, -137.120656,  26.627726,   0.355793,  -0.905720,  -0.214519,   0.083726, 
21535,   0.041209,  -7.068520,  -7.459654,  69.307528,  -0.758857,   0.742723,   0.263786,   0.341876,   0.803440, -75.000000, -306.000000, 124.500000,  -0.047461, -136.411088,  26.627800,   0.361385,  -0.903523,  -0.213973,   0.085125, 
21536,   0.024426,  -7.170715,  -7.442734,  65.229628,  -0.660956,   0.656024,   0.261792,   0.353917,   0.810034, -76.500000, -301.500000, 126.000000,  -0.037563, -135.743824,  26.627762,   0.366615,  -0.901395,  -0.213438,   0.086446, 
21537,   0.025053,  -7.245254,  -7.400288,  61.004844,  -0.651556,   0.592243,   0.266654,   0.377360,   0.808060, -75.000000, -294.000000, 124.500000,  -0.029412, -135.121920,  26.628286,   0.371491,  -0.899409,  -0.212946,   0.087669, 
21538,   0.008254,  -7.271982,  -7.290662,  56.531188,  -0.614554,   0.595835,   0.276390,   0.386408,   0.789516, -70.500000, -292.500000, 118.500000,  -0.021020, -134.546240,  26.628620,   0.375985,  -0.897529,  -0.212476,   0.088804, 
21539,  -0.010903,  -7.201395,  -7.074755,  53.140012,  -0.544928,   0.507496,   0.278133,   0.400166,   0.763446, -70.500000, -289.500000, 109.500000,  -0.010449, -134.009552,  26.629242,   0.380165,  -0.895766,  -0.212028,   0.089883, 
21540,   0.006644,  -7.130556,  -6.755887,  51.603248,  -0.496596,   0.569752,   0.266028,   0.395917,   0.778354, -76.500000, -289.500000, 114.000000,  -0.002655, -133.488232,  26.629720,   0.384225,  -0.894043,  -0.211597,   0.090910, 
21541,   0.029471,  -7.099040,  -6.593991,  51.629108,  -0.496965,   0.509109,   0.260607,   0.402256,   0.789232, -79.500000, -286.500000, 117.000000,   0.003240, -132.971024,  26.629882,   0.388241,  -0.892292,  -0.211163,   0.091909, 
21542,   0.002510,  -7.179963,  -6.554116,  52.273368,  -0.471634,   0.534063,   0.270514,   0.412118,   0.766150, -75.000000, -285.000000, 109.500000,   0.012485, -132.450088,  26.630628,   0.392278,  -0.890530,  -0.210718,   0.092943, 
21543,   0.031701,  -7.243501,  -6.452434,  52.924944,  -0.570736,   0.582994,   0.276498,   0.416642,   0.770617, -72.000000, -283.500000, 111.000000,   0.019127, -131.920592,  26.631304,   0.396376,  -0.888711,  -0.210269,   0.093970, 
21544,  -0.015327,  -7.282347,  -6.433336,  53.527276,  -0.456745,   0.530735,   0.271248,   0.423796,   0.776958, -75.000000, -280.500000, 112.500000,   0.029762, -131.388032,  26.632134,   0.400479,  -0.886860,  -0.209797,   0.095031, 
21545,  -0.009441,  -7.307435,  -6.301701,  54.238628,  -0.591612,   0.570987,   0.277011,   0.419086,   0.757005, -72.000000, -283.500000, 106.500000,   0.039488, -130.846592,  26.632912,   0.404652,  -0.884978,  -0.209321,   0.096100, 
21546,   0.019779,  -7.327328,  -6.155136,  55.613936,  -0.461476,   0.544935,   0.278241,   0.430400,   0.744547, -72.000000, -280.500000, 102.000000,   0.046344, -130.290984,  26.633728,   0.408919,  -0.882997,  -0.208831,   0.097168, 
21547,  -0.001875,  -7.376468,  -6.057954,  57.416648,  -0.518770,   0.589885,   0.283290,   0.457465,   0.747688, -70.500000, -271.500000, 102.000000,   0.055163, -129.719328,  26.634462,   0.413303,  -0.880955,  -0.208318,   0.098279, 
21548,   0.003819,  -7.460602,  -5.952329,  59.374256,  -0.540783,   0.645872,   0.277852,   0.460997,   0.748914, -73.500000, -270.000000, 102.000000,   0.065567, -129.124192,  26.635254,   0.417854,  -0.878806,  -0.207774,   0.099443, 
21549,  -0.023213,  -7.563961,  -5.922504,  61.185080,  -0.651651,   0.655148,   0.270998,   0.449594,   0.757481, -76.500000, -273.000000, 105.000000,   0.077828, -128.509400,  26.636522,   0.422537,  -0.876554,  -0.207200,   0.100654, 
21550,  -0.003445,  -7.650975,  -5.886415,  62.627248,  -0.690166,   0.731271,   0.277169,   0.457739,   0.767064, -73.500000, -270.000000, 108.000000,   0.089353, -127.882976,  26.638210,   0.427305,  -0.874249,  -0.206619,   0.101881, 
21551,  -0.009052,  -7.747410,  -5.814522,  63.786804,  -0.675375,   0.665982,   0.273303,   0.474215,   0.746757, -76.500000, -265.500000, 100.500000,   0.101318, -127.243504,  26.640154,   0.432148,  -0.871845,  -0.206014,   0.103129, 
21552,  -0.015162,  -7.831921,  -5.796396,  64.574128,  -0.652274,   0.706010,   0.277602,   0.486796,   0.729437, -75.000000, -262.500000,  94.500000,   0.113989, -126.595936,  26.642418,   0.437050,  -0.869411,  -0.205400,   0.104398, 
21553,  -0.017048,  -7.972625,  -5.759850,  64.877724,  -0.642284,   0.669884,   0.277789,   0.490417,   0.734553, -75.000000, -261.000000,  96.000000,   0.125474, -125.943896,  26.644602,   0.441960,  -0.866901,  -0.204771,   0.105658, 
21554,  -0.007209,  -8.052256,  -5.682651,  64.635376,  -0.644779,   0.652666,   0.278507,   0.499288,   0.735708, -75.000000, -258.000000,  96.000000,   0.135547, -125.294440,  26.647002,   0.446851,  -0.864398,  -0.204150,   0.106904, 
21555,   0.004986,  -8.086493,  -5.588616,  64.490540,  -0.712409,   0.699185,   0.285174,   0.507070,   0.722025, -72.000000, -256.500000,  91.500000,   0.143558, -124.646744,  26.649126,   0.451708,  -0.861852,  -0.203525,   0.108123, 
21556,  -0.020364,  -8.183844,  -5.510248,  64.253800,  -0.627909,   0.687442,   0.274812,   0.516578,   0.710863, -78.000000, -253.500000,  87.000000,   0.153337, -124.001312,  26.651276,   0.456539,  -0.859305,  -0.202891,   0.109351, 
21557,  -0.017644,  -8.259279,  -5.414213,  64.010232,  -0.658084,   0.668751,   0.281683,   0.530788,   0.711948, -75.000000, -249.000000,  87.000000,   0.164536, -123.355488,  26.653756,   0.461350,  -0.856721,  -0.202244,   0.110586, 
21558,  -0.016246,  -8.297584,  -5.368130,  63.574220,  -0.658172,   0.648474,   0.286716,   0.555046,   0.705436, -73.500000, -241.500000,  84.000000,   0.173340, -122.718984,  26.656432,   0.466083,  -0.854149,  -0.201611,   0.111784, 
21559,  -0.015087,  -8.365276,  -5.302135,  62.730524,  -0.681944,   0.645526,   0.288476,   0.571610,   0.689018, -73.500000, -237.000000,  78.000000,   0.181213, -122.092080,  26.659300,   0.470734,  -0.851592,  -0.200986,   0.112956, 
21560,  -0.028277,  -8.443828,  -5.226156,  61.780776,  -0.630578,   0.598263,   0.293913,   0.568078,   0.687793, -70.500000, -238.500000,  78.000000,   0.190623, -121.474504,  26.662342,   0.475294,  -0.849040,  -0.200356,   0.114119, 
21561,  -0.013377,  -8.451327,  -5.109788,  60.807800,  -0.615837,   0.529786,   0.285031,   0.563102,   0.683650, -75.000000, -240.000000,  76.500000,   0.199170, -120.867392,  26.665300,   0.479774,  -0.846525,  -0.199738,   0.115256, 
21562,  -0.013632,  -8.547707,  -5.043560,  59.772832,  -0.665294,   0.637414,   0.284268,   0.586457,   0.677786, -76.500000, -232.500000,  73.500000,   0.207773, -120.271400,  26.668172,   0.484145,  -0.844009,  -0.199117,   0.116367, 
21563,  -0.007662,  -8.584645,  -4.929836,  59.055252,  -0.673601,   0.622592,   0.288942,   0.606280,   0.670698, -75.000000, -226.500000,  70.500000,   0.216308, -119.681472,  26.671630,   0.488471,  -0.841518,  -0.198507,   0.117469, 
21564,  -0.028965,  -8.604653,  -4.893680,  58.185812,  -0.606610,   0.574557,   0.286011,   0.600215,   0.651716, -76.500000, -229.500000,  64.500000,   0.225072, -119.103448,  26.675048,   0.492686,  -0.839038,  -0.197897,   0.118547, 
21565,  -0.040666,  -8.661693,  -4.737151,  57.399148,  -0.554405,   0.571654,   0.287241,   0.611530,   0.639259, -76.500000, -226.500000,  60.000000,   0.234139, -118.530992,  26.678020,   0.496853,  -0.836571,  -0.197285,   0.119613, 
21566,  -0.051405,  -8.698563,  -4.624272,  56.659512,  -0.571511,   0.566103,   0.290668,   0.617231,   0.634975, -75.000000, -225.000000,  58.500000,   0.241376, -117.962464,  26.681038,   0.500985,  -0.834104,  -0.196681,   0.120657, 
21567,  -0.036417,  -8.705830,  -4.527641,  56.514912,  -0.534804,   0.527449,   0.290668,   0.617231,   0.634975, -75.000000, -225.000000,  58.500000,   0.249751, -117.398224,  26.684460,   0.505062,  -0.831621,  -0.196070,   0.121698, 
21568,  -0.041388,  -8.760947,  -4.430666,  56.415208,  -0.570765,   0.602104,   0.300951,   0.634336,   0.622123, -70.500000, -220.500000,  54.000000,   0.259094, -116.834696,  26.687692,   0.509133,  -0.829142,  -0.195454,   0.122745, 
21569,  -0.031059,  -8.761210,  -4.311049,  56.600668,  -0.543804,   0.545640,   0.295872,   0.642304,   0.623926, -73.500000, -217.500000,  54.000000,   0.267505, -116.268464,  26.690948,   0.513200,  -0.826610,  -0.194828,   0.123783, 
21570,  -0.035958,  -8.784962,  -4.239166,  56.942412,  -0.516554,   0.616611,   0.293520,   0.649908,   0.629942, -75.000000, -214.500000,  55.500000,   0.277784, -115.699832,  26.694846,   0.517274,  -0.824059,  -0.194193,   0.124840, 
21571,  -0.030561,  -8.851390,  -4.120483,  57.347832,  -0.536586,   0.553999,   0.297460,   0.658054,   0.612046, -73.500000, -213.000000,  49.500000,   0.285538, -115.124824,  26.698144,   0.521389,  -0.821461,  -0.193554,   0.125884, 
21572,  -0.044219,  -8.892416,  -4.060940,  57.674768,  -0.565883,   0.577387,   0.298348,   0.667739,   0.608664, -73.500000, -210.000000,  48.000000,   0.293538, -114.547640,  26.701942,   0.525497,  -0.818818,  -0.192906,   0.126930, 
21573,  -0.032885,  -8.945610,  -3.974794,  57.931664,  -0.537676,   0.603926,   0.306855,   0.665473,   0.602577, -69.000000, -211.500000,  46.500000,   0.300354, -113.968656,  26.705898,   0.529620,  -0.816166,  -0.192262,   0.127972, 
21574,  -0.071672,  -9.011856,  -3.893357,  57.865908,  -0.534680,   0.580047,   0.301385,   0.663392,   0.584497, -72.000000, -213.000000,  40.500000,   0.312184, -113.387576,  26.709654,   0.533720,  -0.813465,  -0.191579,   0.129045, 
21575,  -0.028006,  -9.065800,  -3.862117,  57.596448,  -0.572553,   0.590911,   0.302460,   0.676699,   0.586230, -72.000000, -208.500000,  40.500000,   0.319282, -112.813592,  26.713748,   0.537773,  -0.810786,  -0.190927,   0.130073, 
21576,  -0.028549,  -9.157674,  -3.816020,  56.911272,  -0.587971,   0.553112,   0.308802,   0.685658,   0.591274, -69.000000, -205.500000,  42.000000,   0.324727, -112.246952,  26.718012,   0.541763,  -0.808117,  -0.190286,   0.131074, 
21577,  -0.050286,  -9.193625,  -3.714830,  56.111108,  -0.542395,   0.601192,   0.309486,   0.688916,   0.573124, -69.000000, -205.500000,  36.000000,   0.333373, -111.688096,  26.722158,   0.545674,  -0.805462,  -0.189631,   0.132080, 
21578,  -0.040047,  -9.231637,  -3.634517,  55.175380,  -0.522766,   0.539015,   0.311775,   0.710731,   0.552746, -69.000000, -199.500000,  28.500000,   0.339296, -111.139304,  26.726172,   0.549519,  -0.802852,  -0.188999,   0.133050, 
21579,  -0.056033,  -9.270070,  -3.587449,  54.222432,  -0.502922,   0.511463,   0.317042,   0.706384,   0.556059, -66.000000, -201.000000,  30.000000,   0.345912, -110.602528,  26.730552,   0.553249,  -0.800257,  -0.188369,   0.133999, 
21580,  -0.062548,  -9.315668,  -3.522020,  52.874444,  -0.472939,   0.549364,   0.315031,   0.715618,   0.553000, -67.500000, -198.000000,  28.500000,   0.352538, -110.080856,  26.734474,   0.556872,  -0.797733,  -0.187752,   0.134920, 
21581,  -0.037225,  -9.315961,  -3.420323,  51.525764,  -0.523333,   0.524909,   0.309407,   0.715529,   0.549110, -70.500000, -198.000000,  27.000000,   0.357076, -109.570288,  26.738714,   0.560413,  -0.795249,  -0.187158,   0.135809, 
21582,  -0.065355,  -9.355001,  -3.337937,  50.530524,  -0.432045,   0.532972,   0.308268,   0.731642,   0.533017, -72.000000, -193.500000,  21.000000,   0.363415, -109.071392,  26.742734,   0.563848,  -0.792792,  -0.186559,   0.136684, 
21583,  -0.042059,  -9.377200,  -3.209713,  49.517340,  -0.420873,   0.522009,   0.314593,   0.737795,   0.528409, -69.000000, -192.000000,  19.500000,   0.369094, -108.579688,  26.746606,   0.567233,  -0.790370,  -0.185971,   0.137543, 
21584,  -0.077079,  -9.375988,  -3.148596,  48.795304,  -0.490335,   0.530226,   0.312379,   0.740602,   0.510583, -70.500000, -192.000000,  13.500000,   0.376055, -108.096976,  26.751230,   0.570543,  -0.787977,  -0.185387,   0.138396, 
21585,  -0.029722,  -9.375250,  -3.013685,  48.065144,  -0.524546,   0.469358,   0.315449,   0.741868,   0.505722, -69.000000, -192.000000,  12.000000,   0.381523, -107.618640,  26.755880,   0.573806,  -0.785579,  -0.184811,   0.139228, 
21586,  -0.067233,  -9.387631,  -2.947284,  47.594036,  -0.407967,   0.440130,   0.315807,   0.746303,   0.506299, -69.000000, -190.500000,  12.000000,   0.387709, -107.143608,  26.760374,   0.577046,  -0.783199,  -0.184233,   0.140059, 
21587,  -0.056946,  -9.423853,  -2.875822,  47.122172,  -0.362381,   0.444445,   0.313017,   0.776086,   0.487724, -72.000000, -181.500000,   4.500000,   0.393735, -106.675808,  26.764268,   0.580225,  -0.780839,  -0.183656,   0.140871, 
21588,  -0.044273,  -9.438272,  -2.775999,  46.640664,  -0.414324,   0.507841,   0.310991,   0.782513,   0.475013, -73.500000, -180.000000,   0.000000,   0.397661, -106.210456,  26.768098,   0.583374,  -0.778467,  -0.183086,   0.141660, 
21589,  -0.049541,  -9.467936,  -2.702879,  46.279756,  -0.458571,   0.389940,   0.319668,   0.781061,   0.464389, -69.000000, -181.500000,  -3.000000,   0.403680, -105.748456,  26.772588,   0.586497,  -0.776114,  -0.182514,   0.142462, 
21590,  -0.067843,  -9.478612,  -2.641645,  45.877212,  -0.341748,   0.439799,   0.329283,   0.797714,   0.479340, -64.500000, -175.500000,   1.500000,   0.409208, -105.291608,  26.777278,   0.589573,  -0.773771,  -0.181949,   0.143250, 
21591,  -0.055002,  -9.477630,  -2.561877,  45.541240,  -0.456824,   0.399242,   0.322770,   0.787940,   0.478832, -67.500000, -178.500000,   1.500000,   0.414445, -104.838688,  26.781276,   0.592607,  -0.771427,  -0.181379,   0.144022, 
21592,  -0.064015,  -9.473732,  -2.414990,  45.532304,  -0.474066,   0.503272,   0.322020,   0.773456,   0.458372, -67.500000, -184.500000,  -4.500000,   0.421541, -104.383024,  26.786136,   0.595655,  -0.769069,  -0.180801,   0.144816, 
21593,  -0.057418,  -9.522361,  -2.336482,  45.833460,  -0.421629,   0.455304,   0.322754,   0.785134,   0.469180, -67.500000, -180.000000,  -1.500000,   0.427427, -103.923152,  26.790566,   0.598725,  -0.766678,  -0.180219,   0.145604, 
21594,  -0.077360,  -9.532963,  -2.311261,  45.944668,  -0.457243,   0.499411,   0.324171,   0.800069,   0.461837, -67.500000, -175.500000,  -4.500000,   0.433737, -103.466048,  26.794922,   0.601756,  -0.764275,  -0.179630,   0.146385, 
21595,  -0.044266,  -9.518554,  -2.187660,  45.773636,  -0.394850,   0.446418,   0.323220,   0.819803,   0.450859, -69.000000, -169.500000,  -9.000000,   0.439393, -103.007088,  26.799542,   0.604800,  -0.761861,  -0.179044,   0.147166, 
21596,  -0.056234,  -9.527006,  -2.065001,  46.176624,  -0.448912,   0.493411,   0.323904,   0.823061,   0.432709, -69.000000, -169.500000, -15.000000,   0.445584, -102.540008,  26.804150,   0.607889,  -0.759396,  -0.178442,   0.147961, 
21597,  -0.088438,  -9.561263,  -2.004477,  46.622860,  -0.485677,   0.462862,   0.328624,   0.810658,   0.430328, -66.000000, -174.000000, -15.000000,   0.452273, -102.070312,  26.809122,   0.610972,  -0.756889,  -0.177828,   0.148760, 
21598,  -0.062925,  -9.573269,  -1.960033,  47.027512,  -0.389035,   0.408116,   0.325898,   0.811021,   0.426115, -67.500000, -174.000000, -16.500000,   0.457261, -101.600040,  26.813890,   0.614061,  -0.754377,  -0.177222,   0.149547, 
21599,  -0.082582,  -9.621743,  -1.907688,  47.250004,  -0.460485,   0.452813,   0.328966,   0.812287,   0.421253, -66.000000, -174.000000, -18.000000,   0.462820, -101.127984,  26.818762,   0.617153,  -0.751847,  -0.176607,   0.150340, 
21600,  -0.076182,  -9.628337,  -1.871645,  47.113184,  -0.406932,   0.426148,   0.329512,   0.820343,   0.426946, -66.000000, -171.000000, -16.500000,   0.469462, -100.660336,  26.823762,   0.620191,  -0.749313,  -0.175987,   0.151128, 
21601,  -0.072607,  -9.676375,  -1.786667,  46.769556,  -0.414879,   0.457033,   0.324433,   0.828311,   0.428749, -69.000000, -168.000000, -16.500000,   0.473510, -100.194376,  26.828506,   0.623223,  -0.746786,  -0.175380,   0.151895, 
21602,  -0.068321,  -9.714345,  -1.715251,  46.339456,  -0.494114,   0.424778,   0.318246,   0.817360,   0.409514, -72.000000, -172.500000, -22.500000,   0.479832, -99.733544,  26.833576,   0.626209,  -0.744280,  -0.174768,   0.152669, 
21603,  -0.068651,  -9.748682,  -1.680457,  45.601572,  -0.430138,   0.426489,   0.322374,   0.829126,   0.396733, -70.500000, -169.500000, -27.000000,   0.482313, -99.282664,  26.838812,   0.629114,  -0.741796,  -0.174184,   0.153398, 
21604,  -0.083260,  -9.770535,  -1.654614,  44.561968,  -0.490211,   0.387861,   0.330476,   0.854650,   0.385360, -67.500000, -162.000000, -31.500000,   0.486962, -98.846712,  26.844194,   0.631918,  -0.739397,  -0.173608,   0.154120, 
21605,  -0.077244,  -9.837546,  -1.647664,  43.075304,  -0.303843,   0.405738,   0.324134,   0.845690,   0.380315, -70.500000, -165.000000, -33.000000,   0.489449, -98.429888,  26.849572,   0.634602,  -0.737099,  -0.173070,   0.154798, 
21606,  -0.078051,  -9.871717,  -1.595037,  41.102964,  -0.313100,   0.413822,   0.326502,   0.840892,   0.383951, -69.000000, -166.500000, -31.500000,   0.492332, -98.031328,  26.854406,   0.637141,  -0.734873,  -0.172543,   0.155442, 
21607,  -0.071613,  -9.842610,  -1.479756,  39.128652,  -0.334362,   0.392662,   0.339683,   0.858448,   0.370776, -63.000000, -162.000000, -36.000000,   0.494009, -97.652088,  26.859076,   0.639559,  -0.732753,  -0.172047,   0.156048, 
21608,  -0.091402,  -9.816564,  -1.354902,  37.787452,  -0.403648,   0.349580,   0.336597,   0.854375,   0.365984, -64.500000, -163.500000, -37.500000,   0.498502, -97.282216,  26.863880,   0.641912,  -0.730689,  -0.171549,   0.156660, 
21609,  -0.082332,  -9.760531,  -1.246337,  36.960756,  -0.353493,   0.314288,   0.334058,   0.858359,   0.366886, -66.000000, -162.000000, -37.500000,   0.500624, -96.917648,  26.868140,   0.644227,  -0.728643,  -0.171066,   0.157243, 
21610,  -0.088873,  -9.735991,  -1.152992,  36.620628,  -0.294137,   0.364780,   0.332202,   0.865601,   0.349638, -67.500000, -160.500000, -43.500000,   0.506247, -96.554216,  26.872706,   0.646512,  -0.726589,  -0.170562,   0.157844, 
21611,  -0.089849,  -9.765470,  -1.116823,  36.458276,  -0.217811,   0.334371,   0.331672,   0.860351,   0.353597, -67.500000, -162.000000, -42.000000,   0.510611, -96.194416,  26.876486,   0.648778,  -0.724554,  -0.170064,   0.158428, 
21612,  -0.084733,  -9.804685,  -1.084549,  35.796040,  -0.328225,   0.285467,   0.326748,   0.866327,   0.341210, -70.500000, -160.500000, -46.500000,   0.513383, -95.840656,  26.880758,   0.651007,  -0.722551,  -0.169587,   0.158995, 
21613,  -0.077558,  -9.819714,  -1.067981,  34.763196,  -0.269281,   0.330255,   0.328849,   0.884521,   0.315718, -70.500000, -156.000000, -55.500000,   0.515548, -95.502336,  26.884912,   0.653130,  -0.720625,  -0.169131,   0.159533, 
21614,  -0.076171,  -9.822001,  -1.007185,  33.640708,  -0.314267,   0.305486,   0.332465,   0.893843,   0.316549, -69.000000, -153.000000, -55.500000,   0.517971, -95.173896,  26.889192,   0.655176,  -0.718740,  -0.168684,   0.160055, 
21615,  -0.074981,  -9.834139,  -0.943644,  32.534454,  -0.256329,   0.313668,   0.340271,   0.885512,   0.318959, -64.500000, -156.000000, -54.000000,   0.520386, -94.855984,  26.893222,   0.657157,  -0.716915,  -0.168251,   0.160560, 
21616,  -0.097646,  -9.810332,  -0.879272,  31.486604,  -0.184923,   0.275350,   0.341922,   0.871843,   0.321441, -63.000000, -160.500000, -52.500000,   0.522391, -94.547616,  26.896742,   0.659079,  -0.715145,  -0.167829,   0.161046, 
21617,  -0.074952,  -9.828061,  -0.821410,  30.595846,  -0.236159,   0.292670,   0.340271,   0.885512,   0.318959, -64.500000, -156.000000, -54.000000,   0.522794, -94.249648,  26.900734,   0.660938,  -0.713432,  -0.167434,   0.161509, 
21618,  -0.100194,  -9.838942,  -0.741802,  29.794792,  -0.198917,   0.256464,   0.346596,   0.891665,   0.314351, -61.500000, -154.500000, -55.500000,   0.524862, -93.956408,  26.904638,   0.662746,  -0.711728,  -0.167031,   0.161971, 
21619,  -0.086572,  -9.767926,  -0.651488,  29.252586,  -0.217248,   0.293680,   0.338773,   0.897190,   0.302288, -66.000000, -153.000000, -60.000000,   0.528176, -93.665000,  26.908434,   0.664539,  -0.710034,  -0.166622,   0.162436, 
21620,  -0.100545,  -9.726471,  -0.528679,  29.253864,  -0.179555,   0.320473,   0.344895,   0.896915,   0.282913, -63.000000, -154.500000, -66.000000,   0.533532, -93.371288,  26.912204,   0.666343,  -0.708330,  -0.166197,   0.162918, 
21621,  -0.069117,  -9.713768,  -0.437288,  29.863324,  -0.210790,   0.285051,   0.352684,   0.885778,   0.275671, -58.500000, -159.000000, -67.500000,   0.536867, -93.064752,  26.916242,   0.668229,  -0.706549,  -0.165767,   0.163407, 
21622,  -0.081333,  -9.745066,  -0.421728,  30.404382,  -0.200020,   0.315378,   0.346546,   0.883246,   0.285394, -61.500000, -159.000000, -64.500000,   0.541088, -92.755848,  26.919982,   0.670125,  -0.704751,  -0.165325,   0.163902, 
21623,  -0.077982,  -9.763144,  -0.417453,  30.886272,  -0.197232,   0.304297,   0.343056,   0.906964,   0.275317, -64.500000, -151.500000, -69.000000,   0.543944, -92.447544,  26.923748,   0.672001,  -0.702936,  -0.164888,   0.164384, 
21624,  -0.088264,  -9.794711,  -0.402928,  30.850894,  -0.210141,   0.276602,   0.348306,   0.899810,   0.268977, -61.500000, -154.500000, -70.500000,   0.547805, -92.141456,  26.927474,   0.673862,  -0.701136,  -0.164448,   0.164869, 
21625,  -0.087068,  -9.800035,  -0.332562,  30.672776,  -0.181133,   0.263551,   0.344520,   0.889673,   0.272683, -63.000000, -157.500000, -69.000000,   0.551535, -91.835816,  26.931242,   0.675721,  -0.699337,  -0.164009,   0.165352, 
21626,  -0.085189,  -9.808507,  -0.300226,  30.463894,  -0.262473,   0.306221,   0.334158,   0.899182,   0.261521, -69.000000, -154.500000, -73.500000,   0.554628, -91.533808,  26.935306,   0.677558,  -0.697559,  -0.163581,   0.165828, 
21627,  -0.097670,  -9.826402,  -0.253971,  29.932410,  -0.179549,   0.239951,   0.340500,   0.908141,   0.266566, -66.000000, -151.500000, -72.000000,   0.557666, -91.236592,  26.939514,   0.679353,  -0.695796,  -0.163157,   0.166295, 
21628,  -0.083356,  -9.805214,  -0.167423,  29.416744,  -0.224890,   0.225729,   0.352263,   0.910762,   0.260732, -60.000000, -151.500000, -73.500000,   0.559500, -90.941664,  26.943674,   0.681126,  -0.694036,  -0.162741,   0.166749, 
21629,  -0.092213,  -9.777327,  -0.103864,  29.466310,  -0.217728,   0.296026,   0.352042,   0.901528,   0.236312, -60.000000, -156.000000, -81.000000,   0.562745, -90.645808,  26.947772,   0.682904,  -0.692272,  -0.162315,   0.167212, 
21630,  -0.083099,  -9.769983,  -0.047594,  29.485326,  -0.233852,   0.243731,   0.350220,   0.914383,   0.238369, -61.500000, -151.500000, -81.000000,   0.567582, -90.348664,  26.951740,   0.684687,  -0.690503,  -0.161877,   0.167686, 
21631,  -0.108560,  -9.739344,   0.054925,  29.922704,  -0.288124,   0.264992,   0.345157,   0.925157,   0.249824, -64.500000, -147.000000, -78.000000,   0.573851, -90.043496,  26.956094,   0.686516,  -0.688688,  -0.161420,   0.168182, 
21632,  -0.085347,  -9.704126,   0.133023,  30.696544,  -0.182972,   0.301494,   0.337928,   0.906512,   0.248162, -67.500000, -153.000000, -78.000000,   0.578015, -89.729024,  26.960198,   0.688384,  -0.686795,  -0.160956,   0.168672, 
21633,  -0.098901,  -9.704228,   0.217316,  31.709242,  -0.247654,   0.285392,   0.332286,   0.903617,   0.234620, -70.500000, -154.500000, -82.500000,   0.583131, -89.402048,  26.964456,   0.690323,  -0.684825,  -0.160467,   0.169186, 
21634,  -0.090651,  -9.710807,   0.241570,  32.465648,  -0.169152,   0.321228,   0.339654,   0.917464,   0.212440, -67.500000, -151.500000, -90.000000,   0.585476, -89.070976,  26.968284,   0.692290,  -0.682826,  -0.159987,   0.169686, 
21635,  -0.112907,  -9.720777,   0.248479,  33.331752,  -0.295780,   0.302411,   0.349236,   0.928504,   0.208085, -63.000000, -148.500000, -91.500000,   0.590204, -88.734320,  26.972758,   0.694286,  -0.680797,  -0.159487,   0.170212, 
21636,  -0.113894,  -9.710322,   0.349397,  34.182456,  -0.235327,   0.330262,   0.343799,   0.932036,   0.209311, -66.000000, -147.000000, -91.500000,   0.596265, -88.388256,  26.977284,   0.696322,  -0.678697,  -0.158962,   0.170756, 
21637,  -0.089011,  -9.712905,   0.412138,  34.860624,  -0.263716,   0.302417,   0.338548,   0.939190,   0.215651, -69.000000, -144.000000, -90.000000,   0.600357, -88.031968,  26.981824,   0.698410,  -0.676522,  -0.158430,   0.171299, 
21638,  -0.073310,  -9.769187,   0.455299,  35.813664,  -0.274665,   0.330127,   0.341276,   0.938827,   0.219865, -67.500000, -144.000000, -88.500000,   0.603159, -87.670216,  26.986604,   0.700531,  -0.674312,  -0.157900,   0.171844, 
21639,  -0.113049,  -9.750826,   0.519343,  36.285088,  -0.364732,   0.325018,   0.334934,   0.929867,   0.214820, -70.500000, -147.000000, -90.000000,   0.608603, -87.301368,  26.991904,   0.702690,  -0.672062,  -0.157345,   0.172418, 
21640,  -0.094049,  -9.698501,   0.621619,  36.904832,  -0.214840,   0.343211,   0.332565,   0.934666,   0.211184, -72.000000, -145.500000, -91.500000,   0.612498, -86.925280,  26.997162,   0.704875,  -0.669747,  -0.156784,   0.172988, 
21641,  -0.096117,  -9.709809,   0.669989,  37.805948,  -0.261081,   0.404534,   0.345403,   0.950593,   0.207083, -66.000000, -141.000000, -93.000000,   0.616780, -86.539912,  27.002494,   0.707103,  -0.667366,  -0.156205,   0.173570, 
21642,  -0.098275,  -9.670448,   0.798656,  38.783808,  -0.379196,   0.360991,   0.348269,   0.945431,   0.187455, -64.500000, -144.000000, -99.000000,   0.621542, -86.141120,  27.008222,   0.709409,  -0.664903,  -0.155604,   0.174177, 
21643,  -0.096021,  -9.717690,   0.775624,  40.056024,  -0.248651,   0.368622,   0.346818,   0.924883,   0.175492, -64.500000, -151.500000, -102.000000,   0.624733, -85.735128,  27.013764,   0.711756,  -0.662391,  -0.155000,   0.174782, 
21644,  -0.093467,  -9.711401,   0.884238,  40.811000,  -0.330768,   0.305856,   0.347861,   0.932576,   0.157919, -64.500000, -150.000000, -108.000000,   0.629739, -85.319576,  27.019070,   0.714128,  -0.659796,  -0.154363,   0.175402, 
21645,  -0.095516,  -9.674942,   0.984575,  41.754964,  -0.367678,   0.472253,   0.348390,   0.937826,   0.153959, -64.500000, -148.500000, -109.500000,   0.635202, -84.891040,  27.025012,   0.716572,  -0.657120,  -0.153705,   0.176046, 
21646,  -0.114805,  -9.670195,   1.015713,  43.008440,  -0.406433,   0.415749,   0.350588,   0.932213,   0.162133, -63.000000, -150.000000, -106.500000,   0.642153, -84.455848,  27.031274,   0.719053,  -0.654405,  -0.153030,   0.176710, 
21647,  -0.087815,  -9.682932,   1.132758,  43.995724,  -0.435472,   0.400001,   0.356508,   0.966157,   0.152239, -61.500000, -139.500000, -111.000000,   0.645483, -84.006760,  27.037772,   0.721590,  -0.651571,  -0.152350,   0.177366, 
21648,  -0.096234,  -9.670527,   1.153950,  45.060532,  -0.428746,   0.455366,   0.348498,   0.968060,   0.135061, -66.000000, -139.500000, -117.000000,   0.649063, -83.552280,  27.044636,   0.724150,  -0.648698,  -0.151661,   0.178032, 
21649,  -0.086463,  -9.709660,   1.202980,  45.738472,  -0.483912,   0.409636,   0.344729,   0.960730,   0.148420, -67.500000, -141.000000, -112.500000,   0.653896, -83.091904,  27.051408,   0.726741,  -0.645789,  -0.150954,   0.178712, 
21650,  -0.101645,  -9.690814,   1.270748,  46.030932,  -0.440308,   0.370118,   0.355775,   0.954479,   0.141431, -61.500000, -144.000000, -114.000000,   0.656808, -82.630728,  27.058436,   0.729314,  -0.642849,  -0.150253,   0.179378, 
21651,  -0.102734,  -9.721680,   1.346260,  46.322552,  -0.458225,   0.477447,   0.359902,   0.966245,   0.128650, -60.000000, -141.000000, -118.500000,   0.661824, -82.167000,  27.065486,   0.731887,  -0.639888,  -0.149533,   0.180056, 
21652,  -0.105895,  -9.701100,   1.408218,  46.417416,  -0.413867,   0.496687,   0.357518,   0.968237,   0.115361, -61.500000, -141.000000, -123.000000,   0.665546, -81.703992,  27.072826,   0.734459,  -0.636929,  -0.148822,   0.180729, 
21653,  -0.106214,  -9.701234,   1.480806,  46.391620,  -0.413721,   0.513811,   0.360211,   0.962261,   0.100270, -60.000000, -144.000000, -127.500000,   0.671130, -81.239256,  27.079852,   0.737012,  -0.633940,  -0.148090,   0.181406, 
21654,  -0.111359,  -9.696644,   1.566344,  46.228496,  -0.422605,   0.442233,   0.358731,   0.976745,   0.093252, -61.500000, -139.500000, -130.500000,   0.674810, -80.779064,  27.086504,   0.739532,  -0.630969,  -0.147372,   0.182061, 
21655,  -0.079224,  -9.673874,   1.645091,  46.279772,  -0.440292,   0.485998,   0.358544,   0.973124,   0.088136, -61.500000, -141.000000, -132.000000,   0.676470, -80.314032,  27.093666,   0.742081,  -0.627963,  -0.146662,   0.182715, 
21656,  -0.108791,  -9.662047,   1.705076,  46.339676,  -0.467292,   0.451366,   0.355458,   0.969052,   0.083345, -63.000000, -142.500000, -133.500000,   0.678995, -79.852688,  27.101016,   0.744584,  -0.624961,  -0.145948,   0.183364, 
21657,  -0.107197,  -9.668627,   1.744034,  46.090772,  -0.467088,   0.379004,   0.355971,   0.971495,   0.069733, -63.000000, -142.500000, -138.000000,   0.681473, -79.397728,  27.108538,   0.747040,  -0.621990,  -0.145243,   0.184004, 
21658,  -0.093729,  -9.663276,   1.837712,  45.890416,  -0.444286,   0.496143,   0.358152,   0.963076,   0.068254, -61.500000, -145.500000, -138.000000,   0.681045, -78.942808,  27.115556,   0.749500,  -0.619016,  -0.144554,   0.184624, 
21659,  -0.132930,  -9.631614,   1.916195,  45.558740,  -0.412027,   0.469854,   0.356297,   0.970318,   0.051005, -63.000000, -144.000000, -144.000000,   0.684495, -78.491392,  27.122802,   0.751914,  -0.616054,  -0.143841,   0.185258, 
21660,  -0.113345,  -9.625120,   1.982904,  45.448236,  -0.396002,   0.461185,   0.367296,   0.996293,   0.039308, -58.500000, -136.500000, -148.500000,   0.686543, -78.040776,  27.130192,   0.754310,  -0.613081,  -0.143136,   0.185880, 
21661,  -0.116132,  -9.597141,   2.089852,  45.172072,  -0.447054,   0.404051,   0.367296,   0.996293,   0.039308, -58.500000, -136.500000, -148.500000,   0.688677, -77.591288,  27.137388,   0.756701,  -0.610117,  -0.142431,   0.186500, 
21662,  -0.098912,  -9.521083,   2.216000,  45.134144,  -0.497707,   0.533278,   0.357152,   0.974390,   0.028318, -63.000000, -144.000000, -151.500000,   0.691132, -77.136104,  27.144790,   0.759104,  -0.607102,  -0.141713,   0.187127, 
21663,  -0.103384,  -9.532517,   2.265860,  45.593132,  -0.412237,   0.444120,   0.356980,   0.973576,   0.032855, -63.000000, -144.000000, -150.000000,   0.695024, -76.679200,  27.152174,   0.761494,  -0.604062,  -0.140977,   0.187758, 
21664,  -0.109063,  -9.546439,   2.314530,  45.775540,  -0.483568,   0.494179,   0.366530,   0.979003,   0.009196, -58.500000, -144.000000, -157.500000,   0.698500, -76.221664,  27.159724,   0.763888,  -0.601016,  -0.140243,   0.188389, 
21665,  -0.109714,  -9.536761,   2.337811,  45.515252,  -0.456058,   0.538216,   0.369599,   0.980269,   0.004334, -57.000000, -144.000000, -159.000000,   0.700915, -75.772552,  27.167508,   0.766225,  -0.598015,  -0.139529,   0.189003, 
21666,  -0.132328,  -9.509809,   2.439759,  45.142552,  -0.426790,   0.488215,   0.364519,   0.988237,   0.006137, -60.000000, -141.000000, -159.000000,   0.705580, -75.325832,  27.174850,   0.768523,  -0.595015,  -0.138796,   0.189617, 
21667,  -0.093946,  -9.530515,   2.439441,  44.588360,  -0.418877,   0.432933,   0.368289,   0.995567,  -0.007221, -58.500000, -139.500000, -163.500000,   0.706107, -74.889792,  27.181950,   0.770773,  -0.592081,  -0.138108,   0.190195, 
21668,  -0.113540,  -9.555649,   2.474490,  43.685264,  -0.376463,   0.395695,   0.363022,   0.999914,  -0.010533, -61.500000, -138.000000, -165.000000,   0.705206, -74.465912,  27.189180,   0.772955,  -0.589222,  -0.137448,   0.190751, 
21669,  -0.127198,  -9.597134,   2.427344,  42.141340,  -0.386736,   0.397844,   0.360091,   0.993850,  -0.029514, -63.000000, -141.000000, -171.000000,   0.705181, -74.067272,  27.196090,   0.774978,  -0.586514,  -0.136817,   0.191272, 
21670,  -0.105737,  -9.662681,   2.391066,  39.502748,  -0.343622,   0.296051,   0.365700,   0.991132,  -0.035277, -60.000000, -142.500000, -172.500000,   0.699642, -73.708192,  27.201986,   0.776808,  -0.584065,  -0.136285,   0.191711, 
21671,  -0.095885,  -9.593913,   2.533809,  36.199876,  -0.302398,   0.299078,   0.366433,   1.002809,  -0.024469, -60.000000, -138.000000, -169.500000,   0.695257, -73.373704,  27.207836,   0.778511,  -0.581786,  -0.135785,   0.192127, 
21672,  -0.124652,  -9.559990,   2.574077,  33.549164,  -0.306055,   0.323963,   0.367321,   1.012495,  -0.027851, -60.000000, -135.000000, -171.000000,   0.693958, -73.064288,  27.213540,   0.780077,  -0.579677,  -0.135304,   0.192527, 
21673,  -0.088395,  -9.502678,   2.710386,  31.194514,  -0.202193,   0.245717,   0.370203,   1.010140,  -0.037828, -58.500000, -136.500000, -174.000000,   0.691465, -72.770728,  27.218848,   0.781545,  -0.577660,  -0.134853,   0.192894, 
21674,  -0.106922,  -9.462737,   2.776243,  29.306300,  -0.193802,   0.263745,   0.369453,   0.995656,  -0.058288, -58.500000, -142.500000, -180.000000,   0.689640, -72.492592,  27.223420,   0.782936,  -0.575751,  -0.134419,   0.193242, 
21675,  -0.117259,  -9.447176,   2.798144,  27.424348,  -0.228958,   0.273332,   0.372522,   0.996922,  -0.063150, -57.000000, -142.500000, -181.500000,   0.691269, -72.234664,  27.228322,   0.784221,  -0.573985,  -0.133998,   0.193586, 
21676,  -0.128947,  -9.431805,   2.854789,  25.536072,  -0.137769,   0.246414,   0.372555,   1.002535,  -0.043844, -57.000000, -139.500000, -175.500000,   0.692928, -71.993592,  27.232858,   0.785421,  -0.572334,  -0.133602,   0.193908, 
21677,  -0.099018,  -9.411426,   2.917517,  23.921556,  -0.149964,   0.227444,   0.372196,   0.998099,  -0.044422, -57.000000, -141.000000, -175.500000,   0.689918, -71.768152,  27.237116,   0.786549,  -0.570783,  -0.133263,   0.194187, 
21678,  -0.118087,  -9.448758,   2.909415,  22.162494,  -0.130704,   0.108807,   0.363127,   0.989503,  -0.053680, -61.500000, -144.000000, -178.500000,   0.688756, -71.564136,  27.241082,   0.787555,  -0.569373,  -0.132945,   0.194444, 
21679,  -0.120741,  -9.423192,   2.937413,  19.972226,  -0.079085,   0.132979,   0.362410,   0.980632,  -0.054835, -61.500000, -147.000000, -178.500000,   0.687257, -71.380752,  27.244142,   0.788457,  -0.568102,  -0.132658,   0.194669, 
21680,  -0.131344,  -9.372156,   2.985959,  17.796548,  -0.104846,   0.107586,   0.365480,   0.981898,  -0.059697, -60.000000, -147.000000, -180.000000,   0.687621, -71.217568,  27.247750,   0.789256,  -0.566973,  -0.132395,   0.194884, 
21681,  -0.121091,  -9.318383,   3.141088,  16.330965,  -0.106448,   0.101082,   0.358528,   0.994301,  -0.084795, -64.500000, -144.000000, -189.000000,   0.688478, -71.058096,  27.251012,   0.790036,  -0.565871,  -0.132134,   0.195094, 
21682,  -0.118314,  -9.254929,   3.190202,  15.598674,  -0.060410,   0.076427,   0.355801,   0.994664,  -0.089008, -66.000000, -144.000000, -190.500000,   0.688665, -70.900312,  27.254334,   0.790809,  -0.564779,  -0.131880,   0.195300, 
21683,  -0.133149,  -9.262349,   3.223660,  15.198153,  -0.032644,   0.107320,   0.369591,   0.990857,  -0.082131, -58.500000, -145.500000, -187.500000,   0.693375, -70.746200,  27.257472,   0.791558,  -0.563720,  -0.131601,   0.195522, 
21684,  -0.087652,  -9.240149,   3.261194,  14.682987,  -0.031664,   0.066850,   0.378969,   0.995470,  -0.101253, -54.000000, -145.500000, -193.500000,   0.692042, -70.596184,  27.260410,   0.792295,  -0.562680,  -0.131369,   0.195709, 
21685,  -0.152891,  -9.242208,   3.239461,  14.064385,  -0.056743,   0.103105,   0.379140,   0.996284,  -0.105790, -54.000000, -145.500000, -195.000000,   0.694513, -70.455664,  27.263290,   0.792981,  -0.561712,  -0.131126,   0.195903, 
21686,  -0.114030,  -9.224126,   3.282254,  13.541161,  -0.011528,   0.011114,   0.374841,   0.983704,  -0.088471, -55.500000, -148.500000, -189.000000,   0.695008, -70.320536,  27.266202,   0.793642,  -0.560778,  -0.130907,   0.196081, 
21687,  -0.122974,  -9.172771,   3.332387,  13.292987,   0.087243,   0.079759,   0.356940,   0.978551,  -0.072915, -64.500000, -148.500000, -184.500000,   0.695557, -70.183608,  27.268246,   0.794303,  -0.559824,  -0.130678,   0.196253, 
21688,  -0.090940,  -9.197216,   3.378641,  13.292022,  -0.010615,   0.078009,   0.358528,   0.994301,  -0.084795, -64.500000, -144.000000, -189.000000,   0.695766, -70.046176,  27.270740,   0.794965,  -0.558866,  -0.130452,   0.196427, 
21689,  -0.115344,  -9.131007,   3.418636,  13.481843,   0.077834,   0.064266,   0.374452,   1.014301,  -0.084105, -57.000000, -138.000000, -189.000000,   0.696782, -69.902712,  27.273284,   0.795655,  -0.557866,  -0.130211,   0.196612, 
21690,  -0.114350,  -9.126969,   3.469991,  13.858838,  -0.002947,   0.093093,   0.375012,   0.984518,  -0.093008, -55.500000, -148.500000, -190.500000,   0.699746, -69.754824,  27.275804,   0.796365,  -0.556840,  -0.129949,   0.196811, 
21691,  -0.101155,  -9.080437,   3.522645,  14.528157,  -0.058006,   0.064676,   0.370663,   0.963518,  -0.104647, -57.000000, -156.000000, -193.500000,   0.700305, -69.595832,  27.278628,   0.797130,  -0.555732,  -0.129685,   0.197013, 
21692,  -0.117969,  -9.090998,   3.517792,  15.010056,   0.047757,   0.089270,   0.369745,   0.988865,  -0.096321, -58.500000, -147.000000, -192.000000,   0.703053, -69.433832,  27.281498,   0.797908,  -0.554606,  -0.129401,   0.197230, 
21693,  -0.127445,  -9.073812,   3.512421,  15.428788,  -0.148595,   0.151315,   0.373344,   0.995381,  -0.105142, -57.000000, -145.500000, -195.000000,   0.705330, -69.271848,  27.284332,   0.798686,  -0.553480,  -0.129121,   0.197444, 
21694,  -0.109217,  -9.092902,   3.569790,  16.031397,  -0.007959,   0.090829,   0.368078,   0.999728,  -0.108454, -60.000000, -144.000000, -196.500000,   0.707668, -69.102040,  27.287844,   0.799501,  -0.552299,  -0.128829,   0.197672, 
21695,  -0.121638,  -9.066249,   3.563814,  16.451490,  -0.071001,   0.129148,   0.372222,   1.014301,  -0.111583, -58.500000, -139.500000, -198.000000,   0.710186, -68.929256,  27.291042,   0.800330,  -0.551098,  -0.128530,   0.197902, 
21696,  -0.129659,  -9.042728,   3.644033,  16.915174,  -0.081160,   0.090561,   0.379653,   0.998728,  -0.119403, -54.000000, -145.500000, -199.500000,   0.712806, -68.748904,  27.294466,   0.801182,  -0.549834,  -0.128215,   0.198139, 
21697,  -0.102109,  -9.018082,   3.677304,  17.790614,  -0.127608,   0.099380,   0.376380,   0.991034,  -0.129309, -55.500000, -148.500000, -202.500000,   0.714080, -68.558120,  27.297878,   0.802084,  -0.548495,  -0.127892,   0.198381, 
21698,  -0.122052,  -9.013354,   3.720830,  18.778968,  -0.040775,   0.129217,   0.372172,   1.005881,  -0.140541, -58.500000, -144.000000, -207.000000,   0.717481, -68.356224,  27.301324,   0.803036,  -0.547080,  -0.127534,   0.198646, 
21699,  -0.109572,  -9.021706,   3.735082,  19.551362,  -0.086992,   0.136905,   0.377985,   1.009591,  -0.131536, -55.500000, -142.500000, -204.000000,   0.718716, -68.149160,  27.305006,   0.804015,  -0.545626,  -0.127184,   0.198907, 
21700,  -0.101098,  -8.962740,   3.785349,  20.435242,  -0.142178,   0.180473,   0.379278,   0.991486,  -0.129633, -54.000000, -148.500000, -202.500000,   0.720607, -67.933120,  27.309056,   0.805035,  -0.544109,  -0.126815,   0.199185, 
21701,  -0.123576,  -8.956291,   3.862497,  21.568888,  -0.126887,   0.201936,   0.368199,   0.992123,  -0.141949, -60.000000, -148.500000, -207.000000,   0.723660, -67.701480,  27.313022,   0.806128,  -0.542485,  -0.126410,   0.199484, 
21702,  -0.119209,  -8.941496,   3.840704,  22.591126,  -0.093686,   0.196382,   0.365521,   1.000906,  -0.117205, -61.500000, -144.000000, -199.500000,   0.727391, -67.462856,  27.317384,   0.807250,  -0.540811,  -0.125990,   0.199797, 
21703,  -0.105170,  -8.943467,   3.916939,  23.749802,  -0.158695,   0.181882,   0.374183,   0.996647,  -0.137482, -57.000000, -147.000000, -205.500000,   0.730743, -67.211632,  27.321814,   0.808413,  -0.539035,  -0.125547,   0.200117, 
21704,  -0.120722,  -8.936906,   3.918007,  24.616420,  -0.222740,   0.225103,   0.377389,   0.993115,  -0.166186, -55.500000, -150.000000, -214.500000,   0.734773, -66.953904,  27.326184,   0.809607,  -0.537214,  -0.125088,   0.200448, 
21705,  -0.131108,  -8.926334,   3.975773,  25.441066,  -0.188829,   0.269602,   0.377219,   0.992300,  -0.161649, -55.500000, -150.000000, -213.000000,   0.737955, -66.687880,  27.331548,   0.810838,  -0.535333,  -0.124625,   0.200790, 
21706,  -0.117716,  -8.861440,   4.004836,  26.205718,  -0.164300,   0.191432,   0.369225,   0.997010,  -0.169174, -60.000000, -148.500000, -216.000000,   0.741429, -66.414468,  27.336718,   0.812104,  -0.533399,  -0.124145,   0.201141, 
21707,  -0.124048,  -8.859200,   4.085053,  27.339046,  -0.175520,   0.247233,   0.371936,   0.993841,  -0.174613, -58.500000, -150.000000, -217.500000,   0.745651, -66.126984,  27.341730,   0.813435,  -0.531368,  -0.123635,   0.201509, 
21708,  -0.110803,  -8.836822,   4.097560,  28.497654,  -0.249471,   0.223870,   0.380972,   0.996824,  -0.184660, -54.000000, -150.000000, -220.500000,   0.747357, -65.831016,  27.346826,   0.814786,  -0.529258,  -0.123124,   0.201870, 
21709,  -0.134350,  -8.836211,   4.138106,  29.399308,  -0.242378,   0.277444,   0.381313,   0.998453,  -0.193735, -54.000000, -150.000000, -223.500000,   0.750779, -65.526368,  27.352800,   0.816170,  -0.527086,  -0.122589,   0.202253, 
21710,  -0.115975,  -8.840499,   4.179552,  30.103968,  -0.181420,   0.338508,   0.378432,   1.000808,  -0.183759, -55.500000, -148.500000, -220.500000,   0.751927, -65.217436,  27.358668,   0.817577,  -0.524879,  -0.122062,   0.202630, 
21711,  -0.125847,  -8.823432,   4.203424,  30.779022,  -0.244675,   0.255857,   0.364471,   1.003801,  -0.186099, -63.000000, -147.000000, -222.000000,   0.753896, -64.901480,  27.364452,   0.819015,  -0.522624,  -0.121516,   0.203018, 
21712,  -0.125508,  -8.819799,   4.191298,  31.142732,  -0.228766,   0.244674,   0.366482,   0.994567,  -0.183040, -61.500000, -150.000000, -220.500000,   0.756568, -64.588868,  27.369962,   0.820429,  -0.520390,  -0.120969,   0.203401, 
21713,  -0.116407,  -8.814099,   4.248615,  31.267650,  -0.221694,   0.331272,   0.375192,   0.998728,  -0.174359, -57.000000, -148.500000, -217.500000,   0.755264, -64.276956,  27.375414,   0.821825,  -0.518141,  -0.120447,   0.203761, 
21714,  -0.127708,  -8.814064,   4.289843,  31.091096,  -0.237458,   0.261357,   0.369534,   0.993026,  -0.197554, -60.000000, -151.500000, -225.000000,   0.757650, -63.964916,  27.381032,   0.823218,  -0.515898,  -0.119900,   0.204138, 
21715,  -0.134502,  -8.796198,   4.265805,  30.826052,  -0.118214,   0.266358,   0.369672,   0.988228,  -0.221397, -60.000000, -154.500000, -232.500000,   0.757885, -63.660780,  27.386766,   0.824577,  -0.513707,  -0.119382,   0.204499, 
21716,  -0.099675,  -8.811286,   4.323693,  30.172664,  -0.190736,   0.286881,   0.375672,   0.995558,  -0.207277, -57.000000, -151.500000, -228.000000,   0.756099, -63.364608,  27.391652,   0.825904,  -0.511572,  -0.118889,   0.204836, 
21717,  -0.140740,  -8.797908,   4.350216,  29.313376,  -0.249134,   0.270576,   0.376014,   0.997187,  -0.216352, -57.000000, -151.500000, -231.000000,   0.756843, -63.080232,  27.397082,   0.827156,  -0.509514,  -0.118398,   0.205172, 
21718,  -0.119540,  -8.733411,   4.435729,  28.704516,  -0.160661,   0.288648,   0.371261,   1.003978,  -0.233277, -60.000000, -150.000000, -237.000000,   0.757312, -62.798012,  27.402576,   0.828392,  -0.507466,  -0.117913,   0.205503, 
21719,  -0.126485,  -8.719924,   4.471555,  28.336868,  -0.207755,   0.190930,   0.370731,   0.998728,  -0.229317, -60.000000, -151.500000, -235.500000,   0.756570, -62.519700,  27.408066,   0.829611,  -0.505445,  -0.117443,   0.205825, 
21720,  -0.112557,  -8.712892,   4.507795,  27.922820,  -0.194713,   0.235917,   0.361132,   0.984881,  -0.234615, -64.500000, -156.000000, -237.000000,   0.754854, -62.246068,  27.412980,   0.830812,  -0.503456,  -0.116985,   0.206134, 
21721,  -0.122269,  -8.677506,   4.531944,  27.184444,  -0.181168,   0.232858,   0.367645,   0.994655,  -0.234108, -61.500000, -153.000000, -237.000000,   0.754531, -61.978796,  27.417996,   0.831983,  -0.501516,  -0.116530,   0.206443, 
21722,  -0.146751,  -8.643190,   4.597882,  26.677670,  -0.200990,   0.187276,   0.378504,   0.984784,  -0.246211, -55.500000, -157.500000, -240.000000,   0.756609, -61.714548,  27.423096,   0.833124,  -0.499594,  -0.116060,   0.206757, 
21723,  -0.111291,  -8.608978,   4.660597,  26.191476,  -0.250148,   0.212958,   0.377445,   0.974284,  -0.238291, -55.500000, -160.500000, -237.000000,   0.753684, -61.454116,  27.428042,   0.834245,  -0.497685,  -0.115632,   0.207042, 
21724,  -0.133178,  -8.593804,   4.704247,  26.187744,  -0.235121,   0.250896,   0.369110,   0.977365,  -0.236742, -60.000000, -159.000000, -237.000000,   0.755095, -61.190672,  27.433352,   0.835373,  -0.495761,  -0.115168,   0.207351, 
21725,  -0.127090,  -8.556950,   4.680449,  25.849124,  -0.138787,   0.187957,   0.369264,   0.975373,  -0.250931, -60.000000, -160.500000, -241.500000,   0.755159, -60.936792,  27.438172,   0.836462,  -0.493906,  -0.114729,   0.207642, 
21726,  -0.099618,  -8.996329,   4.366060,  21.326786,  -0.286214,   0.248656,   0.379033,   0.990034,  -0.250171, -55.500000, -156.000000, -241.500000,   0.740120, -60.776344,  27.442562,   0.837165,  -0.492705,  -0.114567,   0.207771, 
21727,  -0.130875,  -8.402044,   4.997904,  22.215574,  -0.154193,   0.178598,   0.374297,   0.999631,  -0.257443, -58.500000, -153.000000, -244.500000,   0.755106, -60.523484,  27.448082,   0.838232,  -0.490882,  -0.114023,   0.208129, 
21728,  -0.095012,  -8.472572,   4.890517,  23.311468,  -0.202326,   0.150169,   0.371195,   0.992752,  -0.271887, -60.000000, -156.000000, -249.000000,   0.745909, -60.290220,  27.451978,   0.839228,  -0.489152,  -0.113683,   0.208349, 
21729,  -0.123065,  -8.532433,   4.763381,  22.146750,  -0.153645,   0.255210,   0.374109,   0.996010,  -0.262558, -58.500000, -154.500000, -246.000000,   0.744884, -60.071428,  27.456882,   0.840147,  -0.487539,  -0.113313,   0.208596, 
21730,  -0.139717,  -8.502027,   4.937377,  22.084472,  -0.110827,   0.094763,   0.382787,   0.994558,  -0.273183, -54.000000, -156.000000, -249.000000,   0.746072, -59.856556,  27.461638,   0.841047,  -0.485959,  -0.112932,   0.208848, 
21731,  -0.072135,  -8.415324,   4.949546,  21.834110,  -0.137599,   0.159219,   0.376428,   0.982792,  -0.287880, -57.000000, -160.500000, -253.500000,   0.742428, -59.629728,  27.465748,   0.842004,  -0.484282,  -0.112563,   0.209086, 
21732,  -0.172398,  -8.437505,   4.949570,  21.457082,  -0.135267,   0.252774,   0.377487,   0.993292,  -0.295800, -57.000000, -157.500000, -256.500000,   0.745526, -59.417672,  27.470284,   0.842890,  -0.482726,  -0.112173,   0.209341, 
21733,  -0.123133,  -8.342955,   5.124429,  22.154860,  -0.130687,   0.108724,   0.389437,   0.999533,  -0.296518, -51.000000, -156.000000, -256.500000,   0.749949, -59.186844,  27.474550,   0.843855,  -0.481035,  -0.111737,   0.209618, 
21734,  -0.136363,  -8.306718,   5.086256,  22.951854,  -0.085555,   0.209203,   0.387816,   0.978170,  -0.303943, -51.000000, -163.500000, -258.000000,   0.749383, -58.948800,  27.478720,   0.844846,  -0.479276,  -0.111323,   0.209878, 
21735,  -0.142816,  -8.276824,   5.196196,  23.642838,  -0.173411,   0.155300,   0.385635,   0.986590,  -0.302464, -52.500000, -160.500000, -258.000000,   0.756762, -58.702404,  27.483214,   0.845851,  -0.477463,  -0.110835,   0.210179, 
21736,  -0.092039,  -8.217536,   5.333926,  24.926750,  -0.107960,   0.195749,   0.391977,   0.995549,  -0.297420, -49.500000, -157.500000, -256.500000,   0.755409, -58.432920,  27.488042,   0.846961,  -0.475464,  -0.110370,   0.210468, 
21737,  -0.132033,  -8.166597,   5.357860,  26.541110,  -0.111586,   0.213469,   0.391056,   0.980251,  -0.313342, -49.500000, -163.500000, -261.000000,   0.761185, -58.142132,  27.493112,   0.848150,  -0.473319,  -0.109813,   0.210809, 
21738,  -0.098720,  -8.123203,   5.465548,  28.600812,  -0.240894,   0.207753,   0.385773,   0.981791,  -0.326307, -52.500000, -163.500000, -265.500000,   0.763444, -57.831232,  27.498464,   0.849427,  -0.471019,  -0.109247,   0.211157, 
21739,  -0.119898,  -8.161531,   5.466544,  30.678642,  -0.254015,   0.317440,   0.383063,   0.984961,  -0.320868, -54.000000, -162.000000, -264.000000,   0.765453, -57.501064,  27.505160,   0.850767,  -0.468568,  -0.108651,   0.211529, 
21740,  -0.118386,  -8.144893,   5.414633,  32.258522,  -0.284650,   0.255973,   0.377437,   0.984872,  -0.324757, -57.000000, -162.000000, -265.500000,   0.769602, -57.164788,  27.512082,   0.852113,  -0.466066,  -0.108026,   0.211913, 
21741,  -0.121491,  -8.085374,   5.509666,  33.597536,  -0.350110,   0.234750,   0.383575,   0.987404,  -0.334480, -54.000000, -162.000000, -268.500000,   0.771754, -56.813168,  27.518598,   0.853524,  -0.463446,  -0.107385,   0.212301, 
21742,  -0.139186,  -8.063030,   5.608107,  35.554884,  -0.398811,   0.290259,   0.385977,   0.988219,  -0.311539, -52.500000, -160.500000, -261.000000,   0.774711, -56.439376,  27.525856,   0.855022,  -0.460662,  -0.106700,   0.212718, 
21743,  -0.119262,  -8.005853,   5.641934,  37.401796,  -0.331787,   0.311796,   0.383234,   0.985775,  -0.325405, -54.000000, -162.000000, -265.500000,   0.775104, -56.047524,  27.532922,   0.856579,  -0.457730,  -0.105998,   0.213136, 
21744,  -0.111577,  -8.025388,   5.643158,  38.783108,  -0.450366,   0.359718,   0.387516,   0.995549,  -0.352377, -52.500000, -160.500000, -274.500000,   0.775105, -55.647164,  27.540766,   0.858150,  -0.454723,  -0.105282,   0.213562, 
21745,  -0.114720,  -8.063763,   5.631305,  39.495836,  -0.451967,   0.367542,   0.378309,   0.991751,  -0.337792, -57.000000, -160.500000, -270.000000,   0.774095, -55.248624,  27.548666,   0.859716,  -0.451728,  -0.104578,   0.213982, 
21746,  -0.122896,  -8.008802,   5.647216,  39.942228,  -0.461733,   0.398394,   0.377576,   0.980074,  -0.348600, -57.000000, -165.000000, -273.000000,   0.774376, -54.846620,  27.556502,   0.861293,  -0.448710,  -0.103857,   0.214411, 
21747,  -0.112230,  -8.017743,   5.664404,  40.080260,  -0.409018,   0.331228,   0.384260,   0.990662,  -0.352630, -54.000000, -162.000000, -274.500000,   0.770807, -54.450344,  27.564108,   0.862816,  -0.445708,  -0.103170,   0.214809, 
21748,  -0.118961,  -8.057280,   5.649573,  39.711092,  -0.408410,   0.283657,   0.378635,   0.990574,  -0.356520, -57.000000, -162.000000, -276.000000,   0.767578, -54.065480,  27.571438,   0.864295,  -0.442794,  -0.102500,   0.215197, 
21749,  -0.114621,  -8.069618,   5.601794,  38.465540,  -0.431771,   0.373956,   0.386066,   0.975001,  -0.364339, -52.500000, -168.000000, -277.500000,   0.761182, -53.703368,  27.578866,   0.865688,  -0.440045,  -0.101897,   0.215553, 
21750,  -0.123549,  -8.008823,   5.659606,  36.499236,  -0.427754,   0.274039,   0.386082,   0.977807,  -0.354687, -52.500000, -166.500000, -274.500000,   0.757568, -53.357936,  27.585728,   0.867008,  -0.437425,  -0.101301,   0.215899, 
21751,  -0.109297,  -7.999501,   5.700438,  34.858972,  -0.423627,   0.343072,   0.375891,   0.988130,  -0.370386, -58.500000, -163.500000, -280.500000,   0.751193, -53.031596,  27.592596,   0.868234,  -0.434931,  -0.100759,   0.216212, 
21752,  -0.139810,  -7.896759,   5.810052,  33.237308,  -0.304774,   0.240290,   0.378927,   0.983783,  -0.394552, -57.000000, -166.500000, -288.000000,   0.749347, -52.712936,  27.599138,   0.869426,  -0.432504,  -0.100196,   0.216534, 
21753,  -0.112254,  -7.745339,   5.991541,  33.031312,  -0.295415,   0.238187,   0.386733,   0.975452,  -0.392142, -52.500000, -169.500000, -286.500000,   0.748380, -52.380384,  27.605246,   0.870671,  -0.429974,  -0.099598,   0.216867, 
21754,  -0.135098,  -7.738201,   6.016162,  32.963386,  -0.215150,   0.247567,   0.382605,   0.963686,  -0.379360, -54.000000, -172.500000, -282.000000,   0.746479, -52.052580,  27.611650,   0.871899,  -0.427478,  -0.099017,   0.217196, 
21755,  -0.118235,  -7.615589,   6.142077,  33.323780,  -0.251811,   0.198668,   0.376075,   0.951106,  -0.389520, -57.000000, -177.000000, -285.000000,   0.748106, -51.713384,  27.617560,   0.873137,  -0.424889,  -0.098382,   0.217536, 
21756,  -0.113617,  -7.588560,   6.214129,  34.172268,  -0.413720,   0.231248,   0.378924,   0.943138,  -0.418801, -55.500000, -181.500000, -294.000000,   0.747677, -51.358576,  27.624048,   0.874432,  -0.422174,  -0.097734,   0.217887, 
21757,  -0.092079,  -7.683594,   6.110356,  34.516864,  -0.280427,   0.359254,   0.380512,   0.958888,  -0.430681, -55.500000, -177.000000, -298.500000,   0.743034, -51.016852,  27.630840,   0.875682,  -0.419552,  -0.097145,   0.218213, 
21758,  -0.100323,  -7.622765,   6.148697,  34.113520,  -0.280274,   0.206863,   0.377957,   0.960065,  -0.439432, -57.000000, -177.000000, -301.500000,   0.739294, -50.684692,  27.636666,   0.876897,  -0.417005,  -0.096563,   0.218527, 
