Standard output of YIS Manager:
  TID,     AccX,     AccY,     AccZ,    AngVX,    AngVY,    AngVZ,     MagX,     MagY,     MagZ, NormMagX, NormMagY, NormMagZ,    Pitch,     Roll,      Yaw,       q0,       q1,       q2,       q3, 
20418,  -0.140166,  -9.774273,  -0.158973,  -0.076426,   0.161308,  -0.153236,  -0.002417,   1.080322,  -0.834540, -267.000000, -142.500000, -451.500000,   0.809807, -91.068920, -178.853296,   0.012052,  -0.002191,   0.713637,  -0.700346, 
20419,  -0.119612,  -9.747746,  -0.168245,  -0.101749,   0.205847,  -0.152724,  -0.006016,   1.073806,  -0.825718, -268.500000, -144.000000, -448.500000,   0.809635, -91.065880, -178.850128,   0.012070,  -0.002211,   0.713618,  -0.700365, 
20420,  -0.149002,  -9.793630,  -0.216888,  -0.051059,   0.125798,  -0.127479,  -0.002759,   1.078693,  -0.825464, -267.000000, -142.500000, -448.500000,   0.809028, -91.067640, -178.846656,   0.012087,  -0.002237,   0.713629,  -0.700354, 
20421,  -0.126827,  -9.754213,  -0.170664,  -0.188609,   0.126594,  -0.033247,  -0.000920,   1.068644,  -0.817869, -265.500000, -145.500000, -445.500000,   0.807047, -91.069160, -178.847296,   0.012071,  -0.002245,   0.713638,  -0.700345, 
20422,  -0.138191,  -9.779513,  -0.205585,   0.077543,   0.116967,  -0.056595,  -0.006683,   1.073354,  -0.797915, -268.500000, -142.500000, -439.500000,   0.805765, -91.068968, -178.844400,   0.012081,  -0.002271,   0.713636,  -0.700346, 
20423,  -0.122646,  -9.775463,  -0.192483,  -0.093817,   0.152849,  -0.075251,  -0.009068,   1.075346,  -0.811204, -270.000000, -142.500000, -444.000000,   0.807806, -91.068056, -178.833856,   0.012158,  -0.002324,   0.713631,  -0.700350, 
20424,  -0.163400,  -9.767633,  -0.182748,  -0.084588,   0.215015,  -0.091451,  -0.000920,   1.068644,  -0.817869, -265.500000, -145.500000, -445.500000,   0.811161, -91.067824, -178.827968,   0.012215,  -0.002340,   0.713630,  -0.700351, 
20425,  -0.163398,  -9.751713,  -0.164443,  -0.075870,   0.223759,  -0.117308,  -0.006529,   1.071362,  -0.812106, -268.500000, -144.000000, -444.000000,   0.813931, -91.066616, -178.824944,   0.012251,  -0.002342,   0.713623,  -0.700358, 
20426,  -0.128530,  -9.742373,  -0.178340,  -0.101339,   0.250417,  -0.134521,  -0.001683,   1.091999,  -0.823732, -267.000000, -138.000000, -448.500000,   0.813512, -91.065880, -178.822432,   0.012263,  -0.002360,   0.713618,  -0.700362, 
20427,  -0.127611,  -9.807945,  -0.191952,  -0.059383,   0.152506,  -0.127096,   0.010795,   1.103491,  -0.828411, -261.000000, -135.000000, -450.000000,   0.810711, -91.066424, -178.833504,   0.012178,  -0.002308,   0.713621,  -0.700360, 
20428,   0.005784,  -9.698408,  -0.279998,   0.062427,   0.312324,  -0.131617,   0.003565,   1.084846,  -0.830073, -264.000000, -141.000000, -450.000000,   0.804078, -91.070504, -178.849744,   0.012038,  -0.002248,   0.713646,  -0.700337, 
20429,  -0.148379,  -9.870493,  -0.161002,  -0.321458,   0.188818,  -0.102262,   0.000497,   1.083580,  -0.825211, -265.500000, -141.000000, -448.500000,   0.807909, -91.068544, -178.853920,   0.012036,  -0.002198,   0.713634,  -0.700349, 
20430,  -0.164140,  -9.722287,  -0.097149,   0.112397,   0.133663,  -0.256082,  -0.002384,   1.085935,  -0.815235, -267.000000, -139.500000, -445.500000,   0.806758, -91.066720, -178.855456,   0.012019,  -0.002196,   0.713623,  -0.700360, 
20431,  -0.115865,  -9.825839,  -0.234172,  -0.084760,   0.196194,  -0.099523,   0.000187,   1.087564,  -0.796831, -265.500000, -138.000000, -439.500000,   0.805439, -91.071104, -178.856768,   0.012003,  -0.002196,   0.713650,  -0.700333, 
20432,  -0.080931,  -9.694695,  -0.180314,  -0.059056,   0.215665,   0.048088,   0.000000,   1.083943,  -0.801946, -265.500000, -139.500000, -441.000000,   0.806983, -91.070008, -178.858528,   0.012002,  -0.002176,   0.713643,  -0.700340, 
20433,  -0.128210,  -9.782851,  -0.162365,  -0.031249,   0.220270,  -0.005675,   0.000326,   1.082765,  -0.820674, -265.500000, -141.000000, -447.000000,   0.809561, -91.068040, -178.860176,   0.012008,  -0.002149,   0.713631,  -0.700352, 
20434,  -0.158382,  -9.745743,  -0.208073,   0.009298,   0.152396,  -0.117638,  -0.002368,   1.088741,  -0.805582, -267.000000, -138.000000, -442.500000,   0.807038, -91.070992, -178.862400,   0.011979,  -0.002151,   0.713649,  -0.700334, 
20435,  -0.142282,  -9.757504,  -0.203371,  -0.222155,   0.180215,  -0.194152,  -0.003785,   1.073806,  -0.798239, -267.000000, -142.500000, -439.500000,   0.805504, -91.074584, -178.859984,   0.011984,  -0.002176,   0.713671,  -0.700312, 
20436,  -0.132552,  -9.791478,  -0.138863,  -0.102767,   0.126490,  -0.014898,  -0.006545,   1.068556,  -0.821758, -268.500000, -145.500000, -447.000000,   0.804580, -91.070704, -178.854976,   0.012009,  -0.002213,   0.713647,  -0.700336, 
20437,  -0.076809,  -9.789761,  -0.230184,   0.013263,   0.093761,   0.015775,  -0.006016,   1.073806,  -0.825718, -268.500000, -144.000000, -448.500000,   0.804021, -91.073056, -178.848464,   0.012045,  -0.002257,   0.713662,  -0.700321, 
20438,  -0.149313,  -9.773714,  -0.122451,  -0.111383,   0.126597,   0.002414,  -0.007854,   1.083854,  -0.833314, -270.000000, -141.000000, -451.500000,   0.807771, -91.070512, -178.839184,   0.012125,  -0.002291,   0.713646,  -0.700335, 
20439,  -0.194852,  -9.784701,  -0.152372,  -0.077777,   0.124850,  -0.131658,  -0.014213,   1.072088,  -0.848011, -273.000000, -145.500000, -456.000000,   0.810738, -91.069088, -178.824784,   0.012232,  -0.002363,   0.713638,  -0.700343, 
20440,  -0.164626,  -9.772358,  -0.182171,  -0.077083,   0.099167,  -0.128238,  -0.007124,   1.054886,  -0.846756, -268.500000, -151.500000, -454.500000,   0.811988, -91.070512, -178.812528,   0.012314,  -0.002432,   0.713647,  -0.700333, 
20441,  -0.135581,  -9.784880,  -0.184455,  -0.101686,   0.038388,  -0.040626,   0.002661,   1.072354,  -0.836343, -264.000000, -145.500000, -451.500000,   0.813365, -91.072312, -178.812816,   0.012321,  -0.002422,   0.713657,  -0.700322, 
20442,  -0.141126,  -9.756478,  -0.192608,  -0.025674,   0.108568,  -0.005664,  -0.005486,   1.079056,  -0.829678, -268.500000, -142.500000, -450.000000,   0.815863, -91.071968, -178.812736,   0.012337,  -0.002407,   0.713655,  -0.700323, 
20443,  -0.132866,  -9.770719,  -0.179703,  -0.192268,   0.141395,  -0.039794,  -0.013822,   1.082137,  -0.828129, -273.000000, -141.000000, -450.000000,   0.812783, -91.075312, -178.802928,   0.012378,  -0.002487,   0.713676,  -0.700302, 
20444,  -0.104807,  -9.846941,  -0.244923,   0.256572,  -0.007763,  -0.013324,   0.003036,   1.079596,  -0.826113, -264.000000, -142.500000, -448.500000,   0.801923, -91.078144, -178.803200,   0.012309,  -0.002552,   0.713693,  -0.700286, 
20445,  -0.059442,  -9.661810,  -0.152328,  -0.528333,   0.142818,   0.088039,   0.005217,   1.071176,  -0.827592, -262.500000, -145.500000, -448.500000,   0.803038, -91.079032, -178.812672,   0.012258,  -0.002486,   0.713698,  -0.700281, 
20446,  -0.152839,  -9.696172,  -0.183801,   0.206347,   0.107516,  -0.107562,  -0.001124,   1.062217,  -0.832636, -265.500000, -148.500000, -450.000000,   0.806191, -91.072992, -178.813680,   0.012271,  -0.002460,   0.713661,  -0.700318, 
20447,  -0.209091,  -9.964582,  -0.275879,  -0.176965,   0.133098,  -0.109396,   0.004312,   1.058684,  -0.833862, -262.500000, -150.000000, -450.000000,   0.813746, -91.080272, -178.820656,   0.012275,  -0.002371,   0.713706,  -0.700273, 
20448,  -0.073905,  -9.527673,  -0.082180,  -0.111471,   0.117701,   0.002255,   0.004142,   1.057870,  -0.829324, -262.500000, -150.000000, -448.500000,   0.810435, -91.073376, -178.831792,   0.012187,  -0.002322,   0.713664,  -0.700317, 
20449,  -0.144992,  -9.914976,  -0.257007,  -0.032018,   0.124865,  -0.107946,   0.004859,   1.066741,  -0.828169, -262.500000, -147.000000, -448.500000,   0.813903, -91.071912, -178.840176,   0.012157,  -0.002248,   0.713655,  -0.700326, 
20450,  -0.107657,  -9.752524,  -0.166978,  -0.172033,   0.073399,   0.009504,   0.013927,   1.075337,  -0.818911, -258.000000, -144.000000, -445.500000,   0.808819, -91.073728, -178.865520,   0.011971,  -0.002121,   0.713666,  -0.700317, 
20451,  -0.150354,  -9.746499,  -0.171948,  -0.131529,   0.109666,  -0.031952,   0.002335,   1.073531,  -0.817615, -264.000000, -144.000000, -445.500000,   0.812364, -91.070936, -178.869648,   0.011968,  -0.002074,   0.713649,  -0.700335, 
20452,  -0.153244,  -9.767098,  -0.175000,   0.077938,   0.161581,  -0.029689,  -0.006341,   1.074983,  -0.806991, -268.500000, -142.500000, -442.500000,   0.811899, -91.068416, -178.861680,   0.012013,  -0.002126,   0.713633,  -0.700350, 
20453,  -0.152675,  -9.816803,  -0.211358,  -0.185208,   0.077958,  -0.071787,  -0.000716,   1.075072,  -0.803101, -265.500000, -142.500000, -441.000000,   0.814561, -91.071448, -178.860800,   0.012035,  -0.002115,   0.713652,  -0.700331, 
20454,  -0.102027,  -9.708224,  -0.168677,   0.034592,   0.107946,  -0.100743,  -0.009427,   1.070911,  -0.811782, -270.000000, -144.000000, -444.000000,   0.809664, -91.068960, -178.850208,   0.012070,  -0.002211,   0.713637,  -0.700346, 
20455,  -0.187996,  -9.763041,  -0.232568,  -0.094406,  -0.009429,  -0.111019,  -0.006700,   1.070548,  -0.807568, -268.500000, -144.000000, -442.500000,   0.814159, -91.072072, -178.839776,   0.012161,  -0.002249,   0.713656,  -0.700325, 
20456,  -0.145574,  -9.788999,  -0.173188,  -0.008591,   0.081309,  -0.110395,   0.001806,   1.068281,  -0.813655, -264.000000, -145.500000, -444.000000,   0.814702, -91.069632, -178.843888,   0.012139,  -0.002220,   0.713641,  -0.700341, 
20457,  -0.137850,  -9.737505,  -0.233882,  -0.120572,   0.045975,  -0.112257,  -0.002759,   1.078693,  -0.825464, -267.000000, -142.500000, -448.500000,   0.814674, -91.071384, -178.841456,   0.012154,  -0.002235,   0.713652,  -0.700329, 
20458,  -0.100973,  -9.753693,  -0.189356,  -0.052866,  -0.033625,   0.008915,  -0.005470,   1.081862,  -0.820026, -268.500000, -141.000000, -447.000000,   0.812734, -91.070464, -178.835104,   0.012181,  -0.002287,   0.713646,  -0.700335, 
20459,  -0.171941,  -9.821909,  -0.212357,  -0.167449,  -0.335935,  -0.015123,  -0.000887,   1.074257,  -0.798563, -265.500000, -142.500000, -439.500000,   0.816000, -91.073704, -178.831648,   0.012222,  -0.002288,   0.713666,  -0.700314, 
20460,  -0.139246,  -9.735224,  -0.186087,  -0.068671,  -0.772170,  -0.039191,   0.005079,   1.075975,  -0.803749, -262.500000, -142.500000, -441.000000,   0.818360, -91.073976, -178.833312,   0.012227,  -0.002264,   0.713668,  -0.700312, 
20461,  -0.183118,  -9.819417,  -0.257292,  -0.077408,  -1.661883,  -0.072500,   0.000171,   1.084757,  -0.806484, -265.500000, -139.500000, -442.500000,   0.821522, -91.080272, -178.821552,   0.012318,  -0.002318,   0.713706,  -0.700272, 
20462,  -0.144877,  -9.689646,  -0.215016,  -0.137872,  -2.569184,  -0.089286,   0.000700,   1.090007,  -0.810444, -265.500000, -138.000000, -444.000000,   0.823265, -91.085360, -178.802448,   0.012446,  -0.002427,   0.713738,  -0.700239, 
20463,  -0.121896,  -9.820215,  -0.279852,  -0.182331,  -3.601247,  -0.142924,  -0.002759,   1.078693,  -0.825464, -267.000000, -142.500000, -448.500000,   0.819112, -91.096408, -178.771664,   0.012608,  -0.002645,   0.713806,  -0.700168, 
20464,  -0.134220,  -9.723353,  -0.224993,  -0.224745,  -4.428787,  -0.210312,  -0.006733,   1.064935,  -0.826873, -268.500000, -147.000000, -448.500000,   0.818328, -91.102232, -178.725920,   0.012882,  -0.002936,   0.713842,  -0.700128, 
20465,  -0.102633,  -9.812592,  -0.290326,  -0.206082,  -5.140278,  -0.170529,  -0.003509,   1.064209,  -0.845925, -267.000000, -148.500000, -454.500000,   0.814439, -91.111552, -178.680544,   0.013135,  -0.003243,   0.713899,  -0.700067, 
20466,  -0.096289,  -9.711639,  -0.251259,  -0.247572,  -5.851502,  -0.105296,  -0.006407,   1.063757,  -0.845601, -268.500000, -148.500000, -454.500000,   0.809490, -91.117784, -178.625392,   0.013441,  -0.003618,   0.713937,  -0.700024, 
20467,  -0.149117,  -9.831415,  -0.235210,  -0.134747,  -6.608128,  -0.152307,  -0.008588,   1.072177,  -0.844122, -270.000000, -145.500000, -454.500000,   0.810240, -91.125360, -178.558192,   0.013856,  -0.004033,   0.713981,  -0.699969, 
20468,  -0.101900,  -9.741190,  -0.236567,  -0.186432,  -7.488537,  -0.125004,   0.003174,   1.074797,  -0.849955, -264.000000, -145.500000, -456.000000,   0.807258, -91.131880, -178.503888,   0.014169,  -0.004390,   0.714017,  -0.699920, 
20469,  -0.204371,  -9.837728,  -0.215561,  -0.307516,  -8.449125,  -0.152108,   0.013365,   1.064474,  -0.834256, -258.000000, -148.500000, -450.000000,   0.811391, -91.137024, -178.453680,   0.014501,  -0.004679,   0.714045,  -0.699880, 
20470,  -0.119309,  -9.746440,  -0.236110,  -0.221374,  -9.303686,  -0.227262,  -0.000766,   1.066652,  -0.832059, -265.500000, -147.000000, -450.000000,   0.811068, -91.142672, -178.376368,   0.014971,  -0.005163,   0.714074,  -0.699833, 
20471,  -0.108814,  -9.795547,  -0.227213,  -0.323966, -10.112544,  -0.147031,   0.000822,   1.082402,  -0.843939, -265.500000, -142.500000, -454.500000,   0.810369, -91.146936, -178.294912,   0.015464,  -0.005675,   0.714095,  -0.699794, 
20472,  -0.100453,  -9.789698,  -0.213573,  -0.290032, -11.038204,  -0.232726,   0.011868,   1.076152,  -0.850927, -259.500000, -145.500000, -456.000000,   0.805109, -91.152512, -178.226432,   0.015849,  -0.006135,   0.714124,  -0.699749, 
20473,  -0.064470,  -9.788061,  -0.217435,  -0.390990, -11.696270,  -0.236827,  -0.002588,   1.079507,  -0.830002, -267.000000, -142.500000, -450.000000,   0.800874, -91.157784, -178.128432,   0.016421,  -0.006772,   0.714149,  -0.699702, 
20474,   0.081532,  -9.766088,  -0.277119,  -0.218857, -12.514731,  -0.171146,  -0.019072,   1.089290,  -0.821788, -276.000000, -138.000000, -448.500000,   0.776570, -91.162792, -178.008800,   0.016999,  -0.007667,   0.714169,  -0.699656, 
20475,   0.097085,  -9.752601,  -0.254567,  -0.466100, -13.199023,  -0.151216,  -0.013651,   1.082951,  -0.832666, -273.000000, -141.000000, -451.500000,   0.750747, -91.169552, -177.894752,   0.017534,  -0.008537,   0.714200,  -0.699600, 
20476,   0.129169,  -9.791764,  -0.237240,  -0.296776, -14.329652,  -0.247764,  -0.007700,   1.081862,  -0.847504, -270.000000, -142.500000, -456.000000,   0.712563, -91.174704, -177.789488,   0.017938,  -0.009427,   0.714221,  -0.699558, 
20477,   0.061812,  -9.745346,  -0.265448,  -0.495594, -15.325337,  -0.215426,  -0.013480,   1.083766,  -0.837204, -273.000000, -141.000000, -453.000000,   0.677000, -91.183904, -177.667264,   0.018462,  -0.010407,   0.714265,  -0.699488, 
20478,   0.104754,  -9.758581,  -0.233858,  -0.513508, -16.304882,  -0.424492,  -0.010736,   1.086209,  -0.823338, -271.500000, -139.500000, -448.500000,   0.641363, -91.190792, -177.542496,   0.019001,  -0.011404,   0.714294,  -0.699433, 
20479,   0.023303,  -9.804808,  -0.300595,  -0.438404, -17.390194,  -0.399433,  -0.011453,   1.077338,  -0.824492, -271.500000, -142.500000, -448.500000,   0.612805, -91.202984, -177.407472,   0.019646,  -0.012422,   0.714355,  -0.699342, 
20480,   0.079694,  -9.765509,  -0.267099,  -0.389283, -18.520594,  -0.506004,  -0.014351,   1.076887,  -0.824169, -273.000000, -142.500000, -448.500000,   0.585064, -91.213544, -177.260144,   0.020371,  -0.013511,   0.714405,  -0.699261, 
20481,  -0.017981,  -9.769236,  -0.273731,  -0.586754, -19.355438,  -0.331547,  -0.019618,   1.081234,  -0.827481, -276.000000, -141.000000, -450.000000,   0.575225, -91.221752, -177.091648,   0.021337,  -0.014623,   0.714432,  -0.699180, 
20482,  -0.016255,  -9.745688,  -0.229440,  -0.432163, -20.236890,  -0.415128,  -0.019993,   1.073992,  -0.837711, -276.000000, -144.000000, -453.000000,   0.569363, -91.228208, -176.917776,   0.022360,  -0.015744,   0.714443,  -0.699103, 
20483,  -0.104923,  -9.755931,  -0.247813,  -0.645058, -20.912100,  -0.342440,  -0.022549,   1.075169,  -0.846462, -277.500000, -144.000000, -456.000000,   0.576359, -91.234256, -176.731776,   0.023537,  -0.016862,   0.714451,  -0.699024, 
20484,  -0.125851,  -9.806789,  -0.181905,  -0.461372, -21.437224,  -0.314935,  -0.022207,   1.076798,  -0.855536, -277.500000, -144.000000, -459.000000,   0.581609, -91.234264, -176.546224,   0.024702,  -0.017987,   0.714422,  -0.698982, 
20485,  -0.242826,  -9.741249,  -0.215782,  -0.441178, -22.006772,  -0.350940,  -0.017282,   1.070822,  -0.843150, -274.500000, -145.500000, -454.500000,   0.595413, -91.239048, -176.361600,   0.025913,  -0.019055,   0.714424,  -0.698908, 
20486,  -0.272017,  -9.747142,  -0.125642,  -0.575257, -22.434174,  -0.298123,  -0.019993,   1.073992,  -0.837711, -276.000000, -144.000000, -453.000000,   0.603416, -91.236832, -176.174528,   0.027105,  -0.020172,   0.714382,  -0.698879, 
20487,  -0.298978,  -9.829900,  -0.088195,  -0.551646, -22.771970,  -0.435376,  -0.027799,   1.082323,  -0.840121, -280.500000, -141.000000, -454.500000,   0.608305, -91.236584, -175.977312,   0.028338,  -0.021372,   0.714350,  -0.698836, 
20488,  -0.181707,  -9.719085,  -0.156950,  -0.572928, -23.004498,  -0.493893,  -0.031397,   1.075807,  -0.831300, -282.000000, -142.500000, -451.500000,   0.609495, -91.235504, -175.777168,   0.029567,  -0.022612,   0.714311,  -0.698798, 
20489,  -0.096651,  -9.804619,  -0.141555,  -0.732605, -22.852124,  -0.534526,  -0.028516,   1.073452,  -0.841276, -280.500000, -144.000000, -454.500000,   0.616699, -91.232112, -175.582832,   0.030797,  -0.023778,   0.714246,  -0.698760, 
20490,  -0.076070,  -9.804578,  -0.173008,  -0.533334, -22.854178,  -0.459842,  -0.029792,   1.094363,  -0.833527, -282.000000, -136.500000, -453.000000,   0.624150, -91.227576, -175.392192,   0.032006,  -0.024920,   0.714175,  -0.698729, 
20491,   0.018311,  -9.799231,  -0.111776,  -0.682718, -23.012192,  -0.502008,  -0.033082,   1.083863,  -0.853086, -283.500000, -141.000000, -459.000000,   0.625799, -91.222760, -175.204656,   0.033161,  -0.026077,   0.714102,  -0.698703, 
20492,  -0.120741,  -9.803840,  -0.189603,  -0.434869, -22.909086,  -0.328222,  -0.031105,   1.069016,  -0.869332, -282.000000, -147.000000, -463.500000,   0.643106, -91.216176, -175.014960,   0.034427,  -0.027152,   0.714021,  -0.698682, 
20493,  -0.114357,  -9.751954,  -0.141651,  -0.442876, -23.047564,  -0.352044,  -0.028720,   1.067024,  -0.856043, -280.500000, -147.000000, -459.000000,   0.656613, -91.212312, -174.834192,   0.035615,  -0.028194,   0.713959,  -0.698648, 
20494,  -0.180160,  -9.745844,  -0.176891,  -0.620646, -23.194022,  -0.466842,  -0.037739,   1.066847,  -0.836344, -285.000000, -145.500000, -453.000000,   0.669279, -91.207472, -174.649024,   0.036824,  -0.029269,   0.713889,  -0.698619, 
20495,  -0.235699,  -9.785783,  -0.116611,  -0.618330, -23.439054,  -0.447962,  -0.043331,   1.072372,  -0.820928, -288.000000, -142.500000, -448.500000,   0.681760, -91.199872, -174.452080,   0.038104,  -0.030418,   0.713800,  -0.698603, 
20496,  -0.261032,  -9.753337,  -0.208450,  -0.518992, -23.715976,  -0.436316,  -0.044983,   1.086041,  -0.823410, -289.500000, -138.000000, -450.000000,   0.695430, -91.202264, -174.251168,   0.039413,  -0.031586,   0.713762,  -0.698514, 
20497,  -0.206337,  -9.743196,  -0.202527,  -0.680834, -23.679030,  -0.435508,  -0.051137,   1.080703,  -0.823339, -292.500000, -139.500000, -450.000000,   0.710367, -91.203080, -174.047024,   0.040750,  -0.032767,   0.713709,  -0.698427, 
20498,  -0.246616,  -9.765434,  -0.230384,  -0.588300, -23.787270,  -0.492498,  -0.051854,   1.071832,  -0.824494, -292.500000, -142.500000, -450.000000,   0.726432, -91.206488, -173.841040,   0.042104,  -0.033953,   0.713671,  -0.698323, 
20499,  -0.213527,  -9.758496,  -0.220886,  -0.640660, -23.954774,  -0.413856,  -0.063088,   1.074461,  -0.822621, -298.500000, -141.000000, -450.000000,   0.740513, -91.211176, -173.629232,   0.043481,  -0.035188,   0.713639,  -0.698209, 
20500,  -0.244960,  -9.753886,  -0.229839,  -0.586743, -24.395950,  -0.456879,  -0.064960,   1.078897,  -0.849522, -300.000000, -141.000000, -459.000000,   0.755886, -91.214912, -173.411168,   0.044904,  -0.036454,   0.713601,  -0.698097, 
20501,  -0.270053,  -9.805518,  -0.232553,  -0.649540, -24.844046,  -0.360130,  -0.058105,   1.090300,  -0.858090, -297.000000, -138.000000, -462.000000,   0.770352, -91.222696, -173.201024,   0.046272,  -0.037678,   0.713589,  -0.697964, 
20502,  -0.218197,  -9.749748,  -0.254292,  -0.627106, -25.392220,  -0.467288,  -0.055173,   1.096364,  -0.839109, -295.500000, -135.000000, -456.000000,   0.778565, -91.233280, -172.999184,   0.047550,  -0.038889,   0.713596,  -0.697818, 
20503,  -0.216572,  -9.760863,  -0.212648,  -0.757954, -26.285780,  -0.534889,  -0.061361,   1.085413,  -0.858343, -298.500000, -139.500000, -462.000000,   0.780614, -91.241712, -172.794656,   0.048804,  -0.040154,   0.713573,  -0.697674, 
20504,  -0.166254,  -9.739360,  -0.303734,  -0.694782, -26.839262,  -0.501479,  -0.063746,   1.087405,  -0.871632, -300.000000, -139.500000, -466.500000,   0.790667, -91.253520, -172.581248,   0.050162,  -0.041426,   0.713568,  -0.697500, 
20505,  -0.137735,  -9.788164,  -0.320080,  -0.687752, -26.979104,  -0.398484,  -0.065740,   1.099445,  -0.865038, -301.500000, -135.000000, -465.000000,   0.809708, -91.267608, -172.363392,   0.051601,  -0.042673,   0.713578,  -0.697305, 
20506,  -0.025892,  -9.736149,  -0.359342,  -0.623280, -27.305280,  -0.369724,  -0.072424,   1.088856,  -0.861007, -304.500000, -138.000000, -463.500000,   0.818484, -91.282376, -172.144080,   0.052984,  -0.043992,   0.713589,  -0.697109, 
20507,  -0.161499,  -9.756140,  -0.329678,  -0.743622, -27.387240,  -0.214886,  -0.080183,   1.064962,  -0.858709, -307.500000, -145.500000, -462.000000,   0.845318, -91.290416, -171.908320,   0.054582,  -0.045300,   0.713559,  -0.696939, 
20508,  -0.223031,  -9.742930,  -0.237012,  -0.641519, -27.605708,  -0.367526,  -0.086321,   1.062430,  -0.848986, -310.500000, -145.500000, -459.000000,   0.863499, -91.291760, -171.667856,   0.056158,  -0.046688,   0.713485,  -0.696812, 
20509,  -0.295536,  -9.755765,  -0.239201,  -0.779860, -27.610500,  -0.402013,  -0.082364,   1.073381,  -0.857230, -309.000000, -142.500000, -462.000000,   0.879561, -91.295888, -171.431168,   0.057695,  -0.048066,   0.713418,  -0.696660, 
20510,  -0.226575,  -9.788889,  -0.090185,  -0.549203, -27.567394,  -0.566963,  -0.085621,   1.068494,  -0.857484, -310.500000, -144.000000, -462.000000,   0.881082, -91.288744, -171.206336,   0.059074,  -0.049452,   0.713274,  -0.696584, 
20511,  -0.111187,  -9.732770,  -0.295647,  -0.934328, -27.619628,  -0.517015,  -0.095373,   1.056640,  -0.848591, -315.000000, -147.000000, -459.000000,   0.882999, -91.299376, -170.977424,   0.060472,  -0.050871,   0.713237,  -0.696394, 
20512,  -0.185971,  -9.793197,  -0.122410,  -0.553366, -27.953812,  -0.365004,  -0.091025,   1.077640,  -0.836953, -313.500000, -139.500000, -456.000000,   0.886164, -91.286544, -170.742496,   0.061925,  -0.052307,   0.713054,  -0.696347, 
20513,  -0.180306,  -9.767031,  -0.153366,  -0.997397, -27.885358,  -0.322264,  -0.090838,   1.081261,  -0.831838, -313.500000, -138.000000, -454.500000,   0.900205, -91.288176, -170.509840,   0.063426,  -0.053670,   0.712965,  -0.696205, 
20514,  -0.150150,  -9.839259,  -0.145518,  -0.447351, -27.869734,  -0.498688,  -0.099890,   1.075471,  -0.831444, -318.000000, -139.500000, -454.500000,   0.899470, -91.278080, -170.280144,   0.064822,  -0.055098,   0.712800,  -0.696145, 
20515,  -0.161937,  -9.696771,  -0.159673,  -1.023685, -27.947842,  -0.375881,  -0.096275,   1.084793,  -0.830613, -316.500000, -136.500000, -454.500000,   0.904441, -91.281112, -170.049664,   0.066251,  -0.056504,   0.712710,  -0.695992, 
20516,  -0.128901,  -9.803262,  -0.165401,  -0.411614, -27.727422,  -0.487063,  -0.099735,   1.073478,  -0.845634, -318.000000, -141.000000, -459.000000,   0.900312, -91.273520, -169.829632,   0.067565,  -0.057892,   0.712546,  -0.695907, 
20517,  -0.112287,  -9.706190,  -0.286785,  -1.090378, -27.733868,  -0.311893,  -0.110969,   1.076108,  -0.843760, -324.000000, -139.500000, -459.000000,   0.906852, -91.282144, -169.604256,   0.068970,  -0.059258,   0.712483,  -0.695712, 
20518,  -0.116856,  -9.783237,  -0.155265,  -0.385104, -27.628962,  -0.354478,  -0.110065,   1.088600,  -0.837490, -324.000000, -135.000000, -457.500000,   0.909949, -91.271176, -169.374832,   0.070387,  -0.060659,   0.712297,  -0.695638, 
20519,  -0.209788,  -9.788186,  -0.151830,  -0.942600, -27.538080,  -0.228460,  -0.101746,   1.082713,  -0.848692, -319.500000, -138.000000, -460.500000,   0.914057, -91.272792, -169.160128,   0.071715,  -0.061970,   0.712196,  -0.695495, 
20520,  -0.162075,  -9.747538,  -0.188036,  -0.560441, -27.158116,  -0.556915,  -0.099206,   1.078729,  -0.849594, -318.000000, -139.500000, -460.500000,   0.911146, -91.272496, -168.965344,   0.072880,  -0.063198,   0.712091,  -0.695380, 
20521,  -0.165388,  -9.791883,  -0.168026,  -0.805943, -26.792590,  -0.509610,  -0.104660,   1.079455,  -0.858021, -321.000000, -139.500000, -463.500000,   0.911284, -91.270608, -168.775536,   0.074034,  -0.064376,   0.711980,  -0.695275, 
20522,  -0.123197,  -9.672000,  -0.218384,  -0.722447, -26.142762,  -0.384007,  -0.104660,   1.079455,  -0.858021, -321.000000, -139.500000, -463.500000,   0.919813, -91.266248, -168.588368,   0.075225,  -0.065484,   0.711847,  -0.695170, 
20523,  -0.140228,  -9.881275,  -0.134260,  -0.624587, -25.805144,  -0.420445,  -0.116594,   1.076020,  -0.847650, -327.000000, -139.500000, -460.500000,   0.925578, -91.258416, -168.400480,   0.076404,  -0.066610,   0.711690,  -0.695086, 
20524,  -0.153828,  -9.660702,  -0.189686,  -0.776959, -25.564062,  -0.313405,  -0.121486,   1.087609,  -0.840732, -330.000000, -135.000000, -459.000000,   0.936425, -91.255224, -168.203008,   0.077671,  -0.067768,   0.711559,  -0.694963, 
20525,  -0.122945,  -9.810378,  -0.165361,  -0.484551, -25.538604,  -0.422870,  -0.119101,   1.085617,  -0.827443, -328.500000, -135.000000, -454.500000,   0.936559, -91.244096, -168.009344,   0.078853,  -0.068962,   0.711375,  -0.694899, 
20526,  -0.230667,  -9.753273,  -0.132486,  -0.855178, -25.661834,  -0.333410,  -0.124897,   1.084714,  -0.826795, -331.500000, -135.000000, -454.500000,   0.935719, -91.240608, -167.816576,   0.080019,  -0.070162,   0.711237,  -0.694789, 
20527,  -0.135423,  -9.806744,  -0.185517,  -0.562581, -25.627792,  -0.503641,  -0.127469,   1.083085,  -0.845199, -333.000000, -136.500000, -460.500000,   0.928449, -91.242552, -167.628640,   0.081112,  -0.071374,   0.711132,  -0.694653, 
20528,   0.014753,  -9.768874,  -0.221553,  -0.794838, -25.653520,  -0.419627,  -0.130367,   1.082633,  -0.844875, -334.500000, -136.500000, -460.500000,   0.915555, -91.245256, -167.445424,   0.082142,  -0.072591,   0.711030,  -0.694520, 
20529,  -0.007727,  -9.766891,  -0.286047,  -0.657791, -25.661924,  -0.261613,  -0.132890,   1.089424,  -0.834321, -336.000000, -133.500000, -457.500000,   0.912479, -91.246688, -167.256144,   0.083269,  -0.073786,   0.710917,  -0.694377, 
20530,  -0.166316,  -9.780560,  -0.216418,  -0.623080, -25.635622,  -0.321684,  -0.139078,   1.078472,  -0.853555, -339.000000, -138.000000, -463.500000,   0.916674, -91.247656, -167.063376,   0.084461,  -0.074956,   0.710795,  -0.694222, 
20531,  -0.268065,  -9.799214,  -0.131616,  -0.562754, -25.627262,  -0.399198,  -0.137848,   1.089787,  -0.866012, -339.000000, -135.000000, -468.000000,   0.913532, -91.245592, -166.882960,   0.085536,  -0.076092,   0.710658,  -0.694100, 
20532,  -0.157568,  -9.754754,  -0.130762,  -0.783230, -25.369522,  -0.544997,  -0.135308,   1.085803,  -0.866914, -337.500000, -136.500000, -468.000000,   0.901573, -91.248760, -166.717248,   0.086463,  -0.077195,   0.710557,  -0.693964, 
20533,  -0.007070,  -9.768302,  -0.163879,  -0.657241, -24.782596,  -0.524479,  -0.139110,   1.072859,  -0.872860, -339.000000, -141.000000, -469.500000,   0.894250, -91.242504, -166.553440,   0.087414,  -0.078250,   0.710403,  -0.693884, 
20534,   0.023525,  -9.791409,  -0.198486,  -0.629044, -24.469340,  -0.135673,  -0.147259,   1.079561,  -0.866196, -343.500000, -138.000000, -468.000000,   0.888819, -91.237560, -166.382288,   0.088420,  -0.079340,   0.710253,  -0.693789, 
20535,  -0.061944,  -9.745564,  -0.196731,  -0.457657, -24.523632,  -0.239185,  -0.149969,   1.082731,  -0.860757, -345.000000, -136.500000, -466.500000,   0.881798, -91.233896, -166.211968,   0.089411,  -0.080436,   0.710110,  -0.693688, 
20536,  -0.137576,  -9.813372,  -0.112358,  -0.674704, -24.790832,  -0.402976,  -0.135496,   1.082182,  -0.872029, -337.500000, -138.000000, -469.500000,   0.864051, -91.236712, -166.074128,   0.090134,  -0.081400,   0.710021,  -0.693580, 
20537,  -0.115685,  -9.736419,  -0.230765,  -0.651125, -25.049990,  -0.624895,  -0.133127,   1.077383,  -0.868393, -336.000000, -139.500000, -468.000000,   0.847204, -91.244344, -165.939728,   0.090838,  -0.082342,   0.709964,  -0.693445, 
20538,   0.013558,  -9.729109,  -0.312420,  -0.791452, -25.333962,  -0.553159,  -0.149269,   1.088795,  -0.869254, -345.000000, -135.000000, -469.500000,   0.829226, -91.257224, -165.784432,   0.091657,  -0.083422,   0.709913,  -0.693251, 
20539,  -0.037165,  -9.811616,  -0.322297,  -0.597054, -25.599828,  -0.268544,  -0.155032,   1.093505,  -0.849301, -348.000000, -132.000000, -463.500000,   0.826502, -91.264992, -165.607760,   0.092702,  -0.084539,   0.709824,  -0.693059, 
20540,  -0.125120,  -9.725701,  -0.253254,  -0.718452, -25.696754,  -0.141059,  -0.153364,   1.082642,  -0.837168, -346.500000, -135.000000, -459.000000,   0.835926, -91.270808, -165.426448,   0.093852,  -0.085609,   0.709729,  -0.692865, 
20541,  -0.269582,  -9.813061,  -0.273079,  -0.553919, -25.708620,  -0.456631,  -0.155920,   1.083820,  -0.845919, -348.000000, -135.000000, -462.000000,   0.847153, -91.276264, -165.247232,   0.095001,  -0.086656,   0.709634,  -0.692673, 
20542,  -0.217969,  -9.678726,  -0.207291,  -0.812689, -25.752222,  -0.595636,  -0.157150,   1.072505,  -0.833461, -348.000000, -138.000000, -457.500000,   0.849285, -91.282816, -165.069408,   0.096084,  -0.087750,   0.709541,  -0.692484, 
20543,  -0.158827,  -9.821391,  -0.271735,  -0.629939, -25.693106,  -0.550025,  -0.165844,   1.071151,  -0.832489, -352.500000, -138.000000, -457.500000,   0.853320, -91.285576, -164.880960,   0.097246,  -0.088895,   0.709419,  -0.692307, 
20544,  -0.039596,  -9.726712,  -0.214257,  -0.708831, -25.608300,  -0.235114,  -0.163897,   1.091336,  -0.843791, -352.500000, -132.000000, -462.000000,   0.850451, -91.288368, -164.708512,   0.098269,  -0.089983,   0.709303,  -0.692149, 
20545,  -0.161038,  -9.832422,  -0.266513,  -0.580804, -25.279806,  -0.108927,  -0.167341,   1.082828,  -0.849160, -354.000000, -135.000000, -463.500000,   0.863255, -91.292008, -164.533040,   0.099405,  -0.090995,   0.709202,  -0.691970, 
20546,  -0.183085,  -9.778974,  -0.080214,  -0.550235, -25.217744,  -0.330863,  -0.166999,   1.084457,  -0.858235, -354.000000, -135.000000, -466.500000,   0.862789, -91.287872, -164.371216,   0.100382,  -0.091995,   0.709042,  -0.691849, 
20547,  -0.264861,  -9.777997,  -0.214791,  -0.875620, -25.076128,  -0.619129,  -0.164288,   1.081288,  -0.863674, -352.500000, -136.500000, -468.000000,   0.863523, -91.294392, -164.221136,   0.101287,  -0.092924,   0.708958,  -0.691673, 
20548,  -0.082436,  -9.752606,  -0.178594,  -0.461715, -25.006114,  -0.656840,  -0.176752,   1.072603,  -0.849343, -358.500000, -138.000000, -463.500000,   0.859943, -91.290816, -164.052544,   0.102285,  -0.093985,   0.708793,  -0.691546, 
20549,  -0.048628,  -9.838117,  -0.275122,  -0.836679, -24.940086,  -0.283637,  -0.181301,   1.085821,  -0.851500, -361.500000, -133.500000, -465.000000,   0.861180, -91.293512, -163.881504,   0.103322,  -0.095038,   0.708668,  -0.691373, 
20550,   0.022375,  -9.740086,  -0.148886,  -0.581555, -24.887842,  -0.194803,  -0.178949,   1.078216,  -0.857517, -360.000000, -136.500000, -466.500000,   0.856058, -91.290096, -163.723392,   0.104247,  -0.096043,   0.708511,  -0.691256, 
20551,  -0.145111,  -9.735323,  -0.261082,  -0.782624, -24.868804,  -0.235359,  -0.170426,   1.078756,  -0.853951, -355.500000, -136.500000, -465.000000,   0.860315, -91.292984, -163.576128,   0.105159,  -0.096931,   0.708409,  -0.691101, 
20552,  -0.115724,  -9.775016,  -0.130464,  -0.505757, -25.094264,  -0.519644,  -0.172795,   1.083554,  -0.857587, -357.000000, -135.000000, -466.500000,   0.850950, -91.285656, -163.434240,   0.105964,  -0.097858,   0.708239,  -0.691027, 
20553,  -0.226398,  -9.782526,  -0.123228,  -0.895882, -25.565864,  -0.527486,  -0.190183,   1.080845,  -0.855643, -366.000000, -135.000000, -466.500000,   0.846830, -91.282312, -163.265280,   0.106961,  -0.098925,   0.708075,  -0.690898, 
20554,  -0.119087,  -9.797565,  -0.073258,  -0.455892, -26.153630,  -0.651055,  -0.199235,   1.075055,  -0.855249, -370.500000, -136.500000, -466.500000,   0.836314, -91.273848, -163.083776,   0.107998,  -0.100102,   0.707860,  -0.690793, 
20555,  -0.062931,  -9.762552,  -0.204357,  -0.921959, -26.624330,  -0.322236,  -0.202133,   1.074604,  -0.854925, -372.000000, -136.500000, -466.500000,   0.838119, -91.274160, -162.893488,   0.109155,  -0.101266,   0.707691,  -0.690604, 
20556,   0.000044,  -9.772491,  -0.151435,  -0.491620, -27.094492,  -0.259126,  -0.202492,   1.070168,  -0.855502, -372.000000, -138.000000, -466.500000,   0.832688, -91.262360, -162.704000,   0.110273,  -0.102457,   0.707442,  -0.690496, 
20557,  -0.088449,  -9.765570,  -0.219762,  -0.963229, -27.707430,  -0.303254,  -0.205031,   1.074152,  -0.854601, -373.500000, -136.500000, -466.500000,   0.821190, -91.266464, -162.514416,   0.111341,  -0.103700,   0.707284,  -0.690297, 
20558,  -0.076265,  -9.794084,  -0.131363,  -0.665025, -28.199166,  -0.654889,  -0.204143,   1.083838,  -0.857983, -373.500000, -133.500000, -468.000000,   0.801874, -91.266160, -162.328928,   0.112339,  -0.104961,   0.707096,  -0.690137, 
20559,  -0.028649,  -9.780954,  -0.269163,  -0.949138, -28.617346,  -0.412097,  -0.202150,   1.071797,  -0.864577, -372.000000, -138.000000, -469.500000,   0.784683, -91.277024, -162.151104,   0.113294,  -0.106173,   0.706984,  -0.689914, 
20560,   0.076290,  -9.735341,  -0.275366,  -0.595147, -28.937326,  -0.588908,  -0.202525,   1.064555,  -0.874807, -372.000000, -141.000000, -472.500000,   0.768534, -91.285016, -161.976992,   0.114236,  -0.107353,   0.706859,  -0.689712, 
20561,  -0.063573,  -9.782809,  -0.325031,  -0.917475, -29.249224,  -0.260519,  -0.205936,   1.061660,  -0.860870, -373.500000, -141.000000, -468.000000,   0.768340, -91.294088, -161.787216,   0.115369,  -0.108535,   0.706740,  -0.689471, 
20562,  -0.079340,  -9.718377,  -0.160842,  -0.592385, -29.506042,  -0.468437,  -0.206261,   1.062838,  -0.842143, -373.500000, -139.500000, -462.000000,   0.761254, -91.297088, -161.592384,   0.116495,  -0.109782,   0.706564,  -0.689261, 
20563,  -0.154061,  -9.804653,  -0.245458,  -1.021283, -29.764508,  -0.564784,  -0.211169,   1.071620,  -0.844877, -376.500000, -136.500000, -463.500000,   0.755762, -91.306584, -161.394608,   0.117640,  -0.111043,   0.706421,  -0.689002, 
20564,   0.002215,  -9.722222,  -0.177352,  -0.621864, -29.925346,  -0.719894,  -0.217682,   1.061846,  -0.845384, -379.500000, -139.500000, -463.500000,   0.740320, -91.307384, -161.193200,   0.118755,  -0.112378,   0.706212,  -0.688803, 
20565,  -0.025787,  -9.795033,  -0.331053,  -0.995520, -30.189860,  -0.231676,  -0.217886,   1.055419,  -0.860152, -379.500000, -142.500000, -468.000000,   0.739588, -91.312504, -160.996336,   0.119928,  -0.113601,   0.706047,  -0.688566, 
20566,  -0.011788,  -9.777940,  -0.055920,  -0.579056, -30.760246,  -0.447059,  -0.218992,   1.077145,  -0.856941, -381.000000, -135.000000, -468.000000,   0.738663, -91.300736, -160.793968,   0.121151,  -0.114841,   0.705775,  -0.688428, 
20567,  -0.202887,  -9.814857,  -0.299337,  -1.014663, -31.384706,  -0.407833,  -0.228403,   1.066919,  -0.857124, -385.500000, -138.000000, -468.000000,   0.743866, -91.310520, -160.577968,   0.122471,  -0.116151,   0.705625,  -0.688136, 
20568,  -0.161105,  -9.689855,  -0.067596,  -0.755600, -32.166900,  -0.752490,  -0.231830,   1.061218,  -0.852840, -387.000000, -139.500000, -466.500000,   0.739469, -91.302728, -160.354816,   0.123793,  -0.117544,   0.705353,  -0.687955, 
20569,  -0.142695,  -9.840692,  -0.344349,  -0.899328, -32.779548,  -0.590899,  -0.232936,   1.082944,  -0.849628, -388.500000, -132.000000, -466.500000,   0.738872, -91.316432, -160.128896,   0.125130,  -0.118952,   0.705197,  -0.687622, 
20570,  -0.010163,  -9.694372,  -0.191589,  -0.707366, -33.358730,  -0.694806,  -0.235663,   1.083307,  -0.853842, -390.000000, -132.000000, -468.000000,   0.732195, -91.318632, -159.901264,   0.126452,  -0.120394,   0.704961,  -0.687362, 
20571,  -0.016485,  -9.840126,  -0.288523,  -1.066028, -33.970100,  -0.378908,  -0.233449,   1.080500,  -0.836016, -388.500000, -132.000000, -462.000000,   0.728979, -91.326752, -159.666944,   0.127828,  -0.121864,   0.704757,  -0.687054, 
20572,  -0.029849,  -9.614398,  -0.254829,  -0.906984, -34.416120,  -0.550436,  -0.247939,   1.078243,  -0.834396, -396.000000, -132.000000, -462.000000,   0.733568, -91.331744, -159.408208,   0.129402,  -0.123433,   0.704516,  -0.686728, 
20573,  -0.134535,  -9.857333,  -0.311250,  -0.852527, -34.976324,  -0.481463,  -0.248810,   1.071364,  -0.821360, -396.000000, -133.500000, -457.500000,   0.735994, -91.337176, -159.145696,   0.130985,  -0.125039,   0.704271,  -0.686399, 
20574,  -0.224804,  -9.661702,  -0.131790,  -1.044704, -35.332496,  -0.637858,  -0.258392,   1.060324,  -0.817006, -400.500000, -136.500000, -456.000000,   0.743536, -91.336768, -158.871968,   0.132672,  -0.126677,   0.703982,  -0.686083, 
20575,  -0.050077,  -9.819955,  -0.257481,  -0.926973, -35.609260,  -0.780725,  -0.254623,   1.067654,  -0.830365, -399.000000, -135.000000, -460.500000,   0.740891, -91.342176, -158.604512,   0.134249,  -0.128340,   0.703707,  -0.685735, 
20576,  -0.074381,  -9.710406,  -0.326046,  -1.008978, -36.016184,  -0.371117,  -0.261899,   1.081235,  -0.836735, -403.500000, -130.500000, -463.500000,   0.748919, -91.346248, -158.338304,   0.135886,  -0.129930,   0.703436,  -0.685383, 
20577,  -0.102242,  -9.768458,  -0.190556,  -0.897596, -36.052332,  -0.431453,  -0.270952,   1.075445,  -0.836341, -408.000000, -132.000000, -463.500000,   0.759524, -91.341304, -158.063808,   0.137598,  -0.131546,   0.703105,  -0.685072, 
20578,  -0.202236,  -9.708797,  -0.277424,  -0.950607, -36.194292,  -0.382341,  -0.260419,   1.066751,  -0.829717, -402.000000, -135.000000, -460.500000,   0.766260, -91.347120, -157.797920,   0.139222,  -0.133144,   0.702845,  -0.684711, 
20579,  -0.152915,  -9.837045,  -0.058783,  -0.806673, -36.490808,  -0.899497,  -0.271310,   1.071010,  -0.836918, -408.000000, -133.500000, -463.500000,   0.764949, -91.341648, -157.536224,   0.140785,  -0.134752,   0.702512,  -0.684434, 
20580,  -0.188358,  -9.682026,  -0.404188,  -1.201535, -36.417024,  -0.563122,  -0.273320,   1.080244,  -0.839977, -409.500000, -130.500000, -465.000000,   0.777425, -91.355168, -157.272000,   0.142422,  -0.136312,   0.702289,  -0.684003, 
20581,  -0.198466,  -9.868115,  -0.094554,  -0.601044, -36.489852,  -0.618721,  -0.271856,   1.062953,  -0.842611, -408.000000, -136.500000, -465.000000,   0.791559, -91.345656, -157.009488,   0.144085,  -0.137823,   0.701930,  -0.683710, 
20582,  -0.132164,  -9.703793,  -0.260964,  -1.303379, -36.282992,  -0.492239,  -0.283277,   1.061962,  -0.845853, -414.000000, -136.500000, -466.500000,   0.805864, -91.355880, -156.753104,   0.145690,  -0.139320,   0.701697,  -0.683304, 
20583,  -0.163684,  -9.832024,  -0.194008,  -0.591068, -36.338324,  -0.554998,  -0.285425,   1.075994,  -0.825069, -415.500000, -130.500000, -460.500000,   0.813609, -91.350504, -156.487584,   0.147327,  -0.140893,   0.701352,  -0.682990, 
20584,  -0.198673,  -9.658116,  -0.210084,  -1.296504, -36.470236,  -0.573816,  -0.289024,   1.069478,  -0.816247, -417.000000, -132.000000, -457.500000,   0.825531, -91.355576, -156.215216,   0.149018,  -0.142497,   0.701066,  -0.682598, 
20585,  -0.136816,  -9.817769,  -0.291175,  -0.670910, -36.614424,  -0.656515,  -0.286843,   1.061059,  -0.817726, -415.500000, -135.000000, -457.500000,   0.830686, -91.352064, -155.945248,   0.150661,  -0.144112,   0.700713,  -0.682258, 
20586,  -0.119026,  -9.686768,  -0.230166,  -1.196949, -36.808032,  -0.482989,  -0.283790,   1.059518,  -0.832240, -414.000000, -136.500000, -462.000000,   0.840891, -91.355520, -155.687760,   0.152250,  -0.145629,   0.700415,  -0.681878, 
20587,  -0.212489,  -9.852575,  -0.158385,  -0.657601, -36.969208,  -0.445099,  -0.289790,   1.052188,  -0.846359, -417.000000, -139.500000, -466.500000,   0.853791, -91.344256, -155.437200,   0.153833,  -0.147067,   0.700041,  -0.681592, 
20588,  -0.205212,  -9.656888,  -0.220755,  -1.104177, -37.013876,  -0.685791,  -0.301349,   1.055995,  -0.825759, -423.000000, -136.500000, -460.500000,   0.866099, -91.351608, -155.180992,   0.155423,  -0.148569,   0.699771,  -0.681185, 
20589,  -0.282251,  -9.875136,  -0.266331,  -0.777678, -36.978540,  -0.585834,  -0.306412,   1.066769,  -0.814303, -426.000000, -132.000000, -457.500000,   0.881813, -91.347928, -154.905584,   0.157161,  -0.150153,   0.699416,  -0.680815, 
20590,  -0.026644,  -9.624011,  -0.176910,  -1.016656, -36.844996,  -0.673124,  -0.309497,   1.062697,  -0.819094, -427.500000, -133.500000, -459.000000,   0.884562, -91.350136, -154.635168,   0.158782,  -0.151791,   0.699081,  -0.680430, 
20591,  -0.214324,  -9.858812,  -0.294141,  -0.788919, -37.217836,  -0.416151,  -0.313454,   1.051745,  -0.810850, -429.000000, -136.500000, -456.000000,   0.898227, -91.342944, -154.358272,   0.160517,  -0.153386,   0.698680,  -0.680061, 
20592,  -0.034501,  -9.659050,  -0.066042,  -0.961059, -37.289552,  -0.602083,  -0.313079,   1.058987,  -0.800620, -429.000000, -133.500000, -453.000000,   0.896032, -91.338816, -154.084272,   0.162134,  -0.155063,   0.698280,  -0.679700, 
20593,  -0.227657,  -9.873565,  -0.277726,  -0.911765, -37.475284,  -0.369860,  -0.307129,   1.057898,  -0.815458, -426.000000, -135.000000, -457.500000,   0.906639, -91.331528, -153.815616,   0.163801,  -0.156626,   0.697886,  -0.679348, 
20594,  -0.085998,  -9.657055,  -0.073506,  -0.885663, -37.494732,  -0.683224,  -0.315668,   1.054552,  -0.828676, -430.500000, -136.500000, -462.000000,   0.905075, -91.324352, -153.562960,   0.165300,  -0.158164,   0.697498,  -0.679034, 
20595,  -0.264149,  -9.946758,  -0.242048,  -0.864323, -37.911984,  -0.507640,  -0.323287,   1.066504,  -0.825971, -435.000000, -132.000000, -462.000000,   0.907145, -91.324808, -153.307344,   0.166828,  -0.159710,   0.697157,  -0.678665, 
20596,  -0.180243,  -9.623720,   0.001354,  -1.001184, -37.913312,  -0.831181,  -0.322740,   1.074560,  -0.820279, -435.000000, -129.000000, -460.500000,   0.916955, -91.316912, -153.042928,   0.168462,  -0.161247,   0.696746,  -0.678305, 
20597,  -0.240678,  -9.906461,  -0.353977,  -0.898292, -37.876408,  -0.524789,  -0.324734,   1.086601,  -0.813685, -436.500000, -124.500000, -459.000000,   0.929747, -91.317416, -152.781152,   0.170087,  -0.162762,   0.696393,  -0.677892, 
20598,  -0.149183,  -9.644255,  -0.075345,  -0.908348, -37.648344,  -0.579834,  -0.336668,   1.083166,  -0.803314, -442.500000, -124.500000, -456.000000,   0.941061, -91.308632, -152.508528,   0.171780,  -0.164337,   0.695966,  -0.677521, 
20599,  -0.299942,  -9.856665,  -0.310122,  -0.919891, -37.467524,  -0.596089,  -0.346951,   1.066061,  -0.790462, -447.000000, -129.000000, -451.500000,   0.959770, -91.311928, -152.222000,   0.173583,  -0.165972,   0.695603,  -0.677043, 
20600,  -0.169213,  -9.677853,  -0.041944,  -0.957536, -37.245760,  -0.735678,  -0.342197,   1.059271,  -0.773538, -444.000000, -130.500000, -445.500000,   0.963309, -91.305736, -151.933440,   0.175320,  -0.167694,   0.695158,  -0.676644, 
20601,  -0.180252,  -9.831612,  -0.378852,  -0.956778, -36.853588,  -0.585588,  -0.348539,   1.050311,  -0.778582, -447.000000, -133.500000, -447.000000,   0.974042, -91.319120, -151.650864,   0.177032,  -0.169364,   0.694833,  -0.676107, 
20602,  -0.025376,  -9.700219,  -0.191444,  -0.844047, -36.541264,  -0.536249,  -0.348914,   1.043069,  -0.788812, -447.000000, -136.500000, -450.000000,   0.976843, -91.314352, -151.378112,   0.178663,  -0.170992,   0.694399,  -0.675703, 
20603,  -0.151115,  -9.787015,  -0.274146,  -0.996113, -36.452104,  -0.370017,  -0.350753,   1.053118,  -0.796408, -448.500000, -133.500000, -453.000000,   0.980688, -91.316360, -151.119328,   0.180209,  -0.172540,   0.694027,  -0.675278, 
20604,  -0.271634,  -9.698239,  -0.155508,  -0.786217, -36.106808,  -0.597517,  -0.367066,   1.063715,  -0.792732, -457.500000, -129.000000, -453.000000,   0.987830, -91.311528, -150.855712,   0.181813,  -0.174087,   0.693613,  -0.674882, 
20605,  -0.208199,  -9.856678,  -0.184914,  -0.935735, -35.627032,  -0.781137,  -0.369605,   1.067699,  -0.791830, -459.000000, -127.500000, -453.000000,   0.984337, -91.315232, -150.593968,   0.183329,  -0.175699,   0.693237,  -0.674455, 
20606,  -0.177858,  -9.714334,  -0.178951,  -0.975440, -35.173364,  -0.606225,  -0.358201,   1.065884,  -0.798241, -453.000000, -129.000000, -454.500000,   0.991075, -91.315736, -150.346512,   0.184824,  -0.177157,   0.692869,  -0.674043, 
20607,  -0.157270,  -9.867504,  -0.195164,  -0.865509, -34.558380,  -0.517695,  -0.363467,   1.070231,  -0.801553, -456.000000, -127.500000, -456.000000,   0.997737, -91.313464, -150.117104,   0.186216,  -0.178499,   0.692504,  -0.673669, 
20608,  -0.220019,  -9.701616,  -0.146207,  -0.961592, -33.741264,  -0.425910,  -0.364543,   1.056925,  -0.803286, -456.000000, -132.000000, -456.000000,   1.010939, -91.307984, -149.894000,   0.187614,  -0.179759,   0.692140,  -0.673314, 
20609,  -0.236877,  -9.832352,  -0.176258,  -0.720111, -32.895690,  -0.608394,  -0.364309,   1.028320,  -0.793462, -454.500000, -141.000000, -451.500000,   1.015320, -91.303536, -149.684624,   0.188877,  -0.180990,   0.691791,  -0.672989, 
20610,  -0.212733,  -9.720063,  -0.128854,  -0.899359, -32.105408,  -0.581823,  -0.366986,   1.037102,  -0.768718, -456.000000, -136.500000, -444.000000,   1.018860, -91.296528, -149.472352,   0.190157,  -0.182239,   0.691421,  -0.672676, 
20611,  -0.135701,  -9.824551,  -0.143040,  -0.749214, -31.508270,  -0.679797,  -0.371332,   1.056748,  -0.756108, -459.000000, -129.000000, -441.000000,   1.015508, -91.292096, -149.255840,   0.191415,  -0.183559,   0.691048,  -0.672352, 
20612,  -0.026562,  -9.753428,  -0.104932,  -0.862977, -30.712988,  -0.417436,  -0.376256,   1.062724,  -0.768495, -462.000000, -127.500000, -445.500000,   1.012017, -91.287424, -149.045456,   0.192638,  -0.184842,   0.690683,  -0.672039, 
20613,  -0.152352,  -9.831501,  -0.180939,  -0.556020, -30.145870,  -0.322751,  -0.385667,   1.052498,  -0.768678, -466.500000, -130.500000, -445.500000,   1.014258, -91.279408, -148.839424,   0.193870,  -0.186055,   0.690299,  -0.671730, 
20614,  -0.240433,  -9.653911,  -0.050852,  -0.855903, -29.259078,  -0.615870,  -0.395095,   1.039466,  -0.778513, -471.000000, -135.000000, -448.500000,   1.022410, -91.269040, -148.634160,   0.195138,  -0.187224,   0.689913,  -0.671425, 
20615,  -0.197675,  -9.848579,  -0.115190,  -0.650425, -28.475432,  -0.746666,  -0.392213,   1.037111,  -0.788490, -469.500000, -136.500000, -451.500000,   1.017739, -91.255488, -148.448992,   0.196216,  -0.188342,   0.689520,  -0.671197, 
20616,  -0.177697,  -9.724974,  -0.106564,  -0.766235, -27.898918,  -0.552036,  -0.392197,   1.039918,  -0.778837, -469.500000, -135.000000, -448.500000,   1.020362, -91.247576, -148.275360,   0.197262,  -0.189358,   0.689192,  -0.670941, 
20617,  -0.121573,  -9.835330,  -0.097499,  -0.635749, -26.934876,  -0.423234,  -0.403038,   1.052596,  -0.757081, -475.500000, -129.000000, -442.500000,   1.029182, -91.232616, -148.089920,   0.198425,  -0.190395,   0.688813,  -0.670697, 
20618,  -0.135524,  -9.728776,  -0.131432,  -0.797998, -26.418414,  -0.201173,  -0.410332,   1.063370,  -0.773104, -480.000000, -126.000000, -448.500000,   1.031197, -91.224688, -147.907904,   0.199516,  -0.191464,   0.688470,  -0.670428, 
20619,  -0.166884,  -9.723939,  -0.156777,  -0.616062, -25.832470,  -0.542678,  -0.395858,   1.062821,  -0.784377, -472.500000, -127.500000, -451.500000,   1.035247, -91.219616, -147.762640,   0.200400,  -0.192306,   0.688207,  -0.670202, 
20620,  -0.173377,  -9.788384,  -0.194706,  -0.742612, -25.494762,  -0.470383,  -0.391463,   1.051595,  -0.768030, -469.500000, -130.500000, -445.500000,   1.032094, -91.212056, -147.619440,   0.201232,  -0.193171,   0.687919,  -0.670004, 
20621,  -0.129395,  -9.747789,  -0.124055,  -0.522435, -25.049924,  -0.553852,  -0.400499,   1.048612,  -0.757983, -474.000000, -130.500000, -442.500000,   1.024195, -91.205176, -147.465904,   0.202092,  -0.194126,   0.687601,  -0.669784, 
20622,  -0.091303,  -9.791323,  -0.206686,  -0.727564, -24.743584,  -0.464607,  -0.404114,   1.039289,  -0.758814, -475.500000, -133.500000, -442.500000,   1.016713, -91.207504, -147.317744,   0.202909,  -0.195062,   0.687348,  -0.669519, 
20623,  -0.078384,  -9.802210,  -0.204565,  -0.302669, -24.497778,  -0.332751,  -0.408851,   1.048886,  -0.766086, -478.500000, -130.500000, -445.500000,   1.009037, -91.203696, -147.174400,   0.203706,  -0.195959,   0.687065,  -0.669299, 
20624,  -0.174398,  -9.717606,  -0.121223,  -0.783365, -24.189308,  -0.339335,  -0.409364,   1.046443,  -0.752473, -478.500000, -130.500000, -441.000000,   1.009547, -91.202704, -147.023888,   0.204589,  -0.196856,   0.686801,  -0.669034, 
20625,  -0.215349,  -9.779726,  -0.240390,  -0.537792, -23.981966,  -0.465423,  -0.398489,   1.039378,  -0.754924, -472.500000, -133.500000, -441.000000,   1.012726, -91.202256, -146.893696,   0.205369,  -0.197617,   0.686580,  -0.668798, 
20626,  -0.188339,  -9.778893,  -0.112122,  -0.819220, -23.776490,  -0.421359,  -0.406483,   1.044088,  -0.762450, -477.000000, -132.000000, -444.000000,   1.016570, -91.199968, -146.763264,   0.206157,  -0.198372,   0.686349,  -0.668572, 
20627,  -0.129025,  -9.751760,  -0.213170,  -0.724735, -23.785954,  -0.490109,  -0.415706,   1.037483,  -0.757518, -481.500000, -133.500000, -442.500000,   1.018434, -91.199904, -146.622112,   0.206992,  -0.199206,   0.686108,  -0.668316, 
20628,  -0.185063,  -9.768763,  -0.164025,  -0.695027, -24.220884,  -0.288639,  -0.418042,   1.047895,  -0.741849, -483.000000, -129.000000, -438.000000,   1.021266, -91.197440, -146.465984,   0.207925,  -0.200121,   0.685830,  -0.668046, 
20629,  -0.193962,  -9.701215,  -0.241948,  -0.757888, -24.533092,  -0.486343,  -0.425644,   1.062653,  -0.729491, -487.500000, -123.000000, -435.000000,   1.032191, -91.200096, -146.288704,   0.209020,  -0.201124,   0.685560,  -0.667693, 
20630,  -0.243039,  -9.785563,  -0.219354,  -0.597009, -24.737274,  -0.331545,  -0.419660,   1.067177,  -0.725024, -484.500000, -121.500000, -433.500000,   1.040103, -91.197344, -146.115472,   0.210080,  -0.202108,   0.685249,  -0.667375, 
20631,  -0.234577,  -9.713040,  -0.150193,  -0.505510, -25.076696,  -0.562844,  -0.426515,   1.055774,  -0.716457, -487.500000, -124.500000, -430.500000,   1.046902, -91.197064, -145.929040,   0.211205,  -0.203181,   0.684925,  -0.667017, 
20632,  -0.174514,  -9.867376,  -0.225981,  -0.560390, -25.405388,  -0.499665,  -0.438824,   1.045097,  -0.716316, -493.500000, -127.500000, -430.500000,   1.044483, -91.198440, -145.731984,   0.212334,  -0.204374,   0.684576,  -0.666646, 
20633,  -0.114983,  -9.669158,  -0.174648,  -0.571242, -25.636712,  -0.512597,  -0.443015,   1.062751,  -0.717895, -496.500000, -121.500000, -432.000000,   1.045344, -91.201040, -145.532128,   0.213497,  -0.205568,   0.684234,  -0.666257, 
20634,  -0.156207,  -9.820730,  -0.245879,  -0.538085, -25.715616,  -0.269951,  -0.448828,   1.059041,  -0.726900, -499.500000, -123.000000, -435.000000,   1.048471, -91.199936, -145.334144,   0.214669,  -0.206729,   0.683878,  -0.665889, 
20635,  -0.126447,  -9.725161,  -0.223166,  -0.565648, -25.929998,  -0.456826,  -0.454031,   1.033968,  -0.715851, -501.000000, -130.500000, -430.500000,   1.046139, -91.203024, -145.126048,   0.215859,  -0.207991,   0.683519,  -0.665487, 
20636,  -0.235619,  -9.774292,  -0.258242,  -0.815182, -25.973700,  -0.416837,  -0.454031,   1.033968,  -0.715851, -501.000000, -130.500000, -430.500000,   1.052916, -91.205120, -144.918032,   0.217105,  -0.209198,   0.683170,  -0.665074, 
20637,  -0.174629,  -9.742167,  -0.188717,  -0.514551, -25.983800,  -0.518139,  -0.438670,   1.043105,  -0.730505, -493.500000, -129.000000, -435.000000,   1.055458, -91.205072, -144.746688,   0.218114,  -0.210204,   0.682860,  -0.664744, 
20638,  -0.178499,  -9.788260,  -0.180514,  -0.724173, -26.329940,  -0.456975,  -0.429772,   1.050887,  -0.716710, -489.000000, -126.000000, -430.500000,   1.054166, -91.205968, -144.577728,   0.219083,  -0.211219,   0.682548,  -0.664414, 
20639,  -0.222917,  -9.811106,  -0.191484,  -0.537450, -26.552766,  -0.458877,  -0.435926,   1.045548,  -0.716640, -492.000000, -127.500000, -430.500000,   1.058867, -91.203424, -144.399776,   0.220146,  -0.212245,   0.682210,  -0.664076, 
20640,  -0.107960,  -9.708176,  -0.182295,  -0.840057, -26.765736,  -0.492103,  -0.439183,   1.040662,  -0.716893, -493.500000, -129.000000, -430.500000,   1.053160, -91.209328, -144.225744,   0.221109,  -0.213325,   0.681909,  -0.663715, 
20641,  -0.174069,  -9.763159,  -0.341579,  -0.707161, -27.201342,  -0.376537,  -0.454966,   1.056509,  -0.717177, -502.500000, -123.000000, -432.000000,   1.053539, -91.217896, -144.032432,   0.222215,  -0.214490,   0.681599,  -0.663290, 
20642,  -0.178992,  -9.684182,  -0.218808,  -0.708596, -27.371074,  -0.518816,  -0.461837,   1.042300,  -0.718261, -505.500000, -127.500000, -432.000000,   1.060787, -91.219800, -143.828576,   0.223435,  -0.215664,   0.681243,  -0.662870, 
20643,  -0.152164,  -9.761592,  -0.278267,  -0.839954, -27.601250,  -0.358996,  -0.466682,   1.021662,  -0.706635, -507.000000, -133.500000, -427.500000,   1.060673, -91.225160, -143.615248,   0.224659,  -0.216945,   0.680875,  -0.662426, 
20644,  -0.220346,  -9.716447,  -0.256319,  -0.694167, -27.637650,  -0.453769,  -0.468130,   1.041759,  -0.694348, -508.500000, -126.000000, -424.500000,   1.067246, -91.226792, -143.389216,   0.226002,  -0.218254,   0.680472,  -0.661963, 
20645,  -0.166551,  -9.768021,  -0.284871,  -0.806264, -27.672630,  -0.386002,  -0.465607,   1.034969,  -0.704902, -507.000000, -129.000000, -427.500000,   1.068742, -91.235800, -143.184080,   0.227177,  -0.219479,   0.680130,  -0.661495, 
20646,  -0.216297,  -9.769590,  -0.285833,  -0.678423, -27.770774,  -0.386338,  -0.462400,   1.031436,  -0.733606, -505.500000, -132.000000, -436.500000,   1.078046, -91.244664, -143.010352,   0.228216,  -0.220473,   0.679862,  -0.661076, 
20647,  -0.228391,  -9.793174,  -0.288890,  -0.576341, -27.859704,  -0.334575,  -0.464222,   1.044292,  -0.731550, -507.000000, -127.500000, -436.500000,   1.085589, -91.254072, -142.836416,   0.229245,  -0.221479,   0.679594,  -0.660656, 
20648,  -0.241574,  -9.738873,  -0.225213,  -0.885727, -27.913230,  -0.504290,  -0.472883,   1.048550,  -0.711273, -511.500000, -124.500000, -430.500000,   1.093574, -91.264552, -142.637456,   0.230419,  -0.222633,   0.679284,  -0.660179, 
20649,  -0.250265,  -9.826821,  -0.260158,  -0.580088, -28.278982,  -0.568342,  -0.473755,   1.041671,  -0.698238, -511.500000, -126.000000, -426.000000,   1.098754, -91.269056, -142.427728,   0.231649,  -0.223856,   0.678914,  -0.659721, 
20650,  -0.227081,  -9.710583,  -0.216824,  -0.813732, -28.447090,  -0.495576,  -0.468130,   1.041759,  -0.694348, -508.500000, -126.000000, -424.500000,   1.103808, -91.277312, -142.224304,   0.232835,  -0.225050,   0.678577,  -0.659254, 
20651,  -0.227174,  -9.841186,  -0.212782,  -0.652757, -28.679070,  -0.558845,  -0.463969,   1.059139,  -0.687824, -507.000000, -120.000000, -423.000000,   1.110099, -91.276976, -142.018976,   0.234056,  -0.226230,   0.678189,  -0.658830, 
20652,  -0.170537,  -9.693032,  -0.244128,  -0.877478, -28.811570,  -0.476645,  -0.473909,   1.043663,  -0.684048, -511.500000, -124.500000, -421.500000,   1.118013, -91.283240, -141.802784,   0.235330,  -0.227474,   0.677806,  -0.658328, 
20653,  -0.131632,  -9.811008,  -0.265755,  -0.625911, -29.132320,  -0.464101,  -0.477524,   1.034341,  -0.684879, -513.000000, -127.500000, -421.500000,   1.115370, -91.285448, -141.588128,   0.236541,  -0.228762,   0.677382,  -0.657874, 
20654,  -0.188226,  -9.705475,  -0.188203,  -0.892435, -29.461062,  -0.505755,  -0.474968,   1.033163,  -0.676128, -511.500000, -127.500000, -418.500000,   1.120074, -91.286480, -141.366976,   0.237836,  -0.230043,   0.676953,  -0.657399, 
20655,  -0.235365,  -9.800046,  -0.285930,  -0.774716, -29.519600,  -0.495829,  -0.489100,   1.035341,  -0.673930, -519.000000, -126.000000, -418.500000,   1.126351, -91.286728, -141.129728,   0.239233,  -0.231409,   0.676490,  -0.656892, 
20656,  -0.150377,  -9.700282,  -0.203261,  -0.757265, -29.692850,  -0.543196,  -0.489442,   1.033712,  -0.664855, -519.000000, -126.000000, -415.500000,   1.129023, -91.286800, -140.888160,   0.240634,  -0.232821,   0.676010,  -0.656384, 
20657,  -0.204983,  -9.790728,  -0.278878,  -0.826669, -30.144210,  -0.507498,  -0.488929,   1.036156,  -0.678468, -519.000000, -126.000000, -420.000000,   1.133393, -91.286544, -140.662192,   0.241956,  -0.234130,   0.675564,  -0.655906, 
20658,  -0.254590,  -9.797967,  -0.196433,  -0.704819, -30.430178,  -0.320739,  -0.497093,   1.040051,  -0.681456, -523.500000, -124.500000, -421.500000,   1.138085, -91.282352, -140.429536,   0.243322,  -0.235463,   0.675068,  -0.655424, 
20659,  -0.264922,  -9.743955,  -0.160735,  -0.761806, -30.548090,  -0.599055,  -0.497452,   1.035616,  -0.682033, -523.500000, -126.000000, -421.500000,   1.147876, -91.284984, -140.201248,   0.244678,  -0.236756,   0.674628,  -0.654896, 
20660,  -0.264377,  -9.859924,  -0.224285,  -0.661714, -30.449124,  -0.529471,  -0.497606,   1.037608,  -0.667843, -523.500000, -124.500000, -417.000000,   1.155201, -91.283736, -139.963312,   0.246081,  -0.238110,   0.674141,  -0.654377, 
20661,  -0.155672,  -9.718697,  -0.141018,  -0.861983, -30.650868,  -0.640664,  -0.493837,   1.044938,  -0.681202, -522.000000, -123.000000, -421.500000,   1.150471, -91.285560, -139.740608,   0.247322,  -0.239451,   0.673678,  -0.653897, 
20662,  -0.171373,  -9.793368,  -0.308531,  -0.938732, -30.661624,  -0.457972,  -0.504323,   1.021406,  -0.683118, -526.500000, -130.500000, -421.500000,   1.149294, -91.292152, -139.478352,   0.248798,  -0.241015,   0.673168,  -0.653298, 
20663,  -0.024695,  -9.750178,  -0.162621,  -0.627009, -30.801130,  -0.540178,  -0.511178,   1.010003,  -0.674550, -529.500000, -133.500000, -418.500000,   1.141781, -91.290432, -139.169312,   0.250521,  -0.242871,   0.672496,  -0.652657, 
20664,  -0.163713,  -9.723624,  -0.333213,  -0.917158, -31.052096,  -0.264504,  -0.519856,   1.011455,  -0.663925, -534.000000, -132.000000, -415.500000,   1.142597, -91.299944, -138.858496,   0.252272,  -0.244708,   0.671883,  -0.651910, 
20665,  -0.173877,  -9.755351,  -0.163212,  -0.538378, -31.118128,  -0.637665,  -0.513343,   1.021229,  -0.663418, -531.000000, -129.000000, -415.500000,   1.141938, -91.291640, -138.546048,   0.254062,  -0.246523,   0.671161,  -0.651267, 
20666,  -0.300850,  -9.772220,  -0.277022,  -1.097272, -31.061518,  -0.449417,  -0.518438,   1.026391,  -0.671268, -534.000000, -127.500000, -418.500000,   1.151949, -91.293472, -138.233360,   0.255893,  -0.248301,   0.670520,  -0.650540, 
20667,  -0.173805,  -9.794854,  -0.104484,  -0.622175, -31.126588,  -0.785721,  -0.525448,   1.016980,  -0.648510, -537.000000, -129.000000, -411.000000,   1.154109, -91.283304, -137.920768,   0.257704,  -0.250097,   0.669794,  -0.649900, 
20668,  -0.182006,  -9.735475,  -0.275521,  -1.105958, -31.052024,  -0.336206,  -0.524731,   1.025851,  -0.647355, -537.000000, -126.000000, -411.000000,   1.153340, -91.294496, -137.608640,   0.259443,  -0.251949,   0.669169,  -0.649130, 
20669,  -0.157467,  -9.760701,  -0.145782,  -0.527484, -30.777834,  -0.577347,  -0.526912,   1.034270,  -0.645876, -538.500000, -123.000000, -411.000000,   1.158771, -91.287632, -137.297920,   0.261247,  -0.253714,   0.668451,  -0.648446, 
20670,  -0.153032,  -9.788237,  -0.248194,  -1.155494, -30.856370,  -0.368087,  -0.521800,   1.031915,  -0.628374, -535.500000, -123.000000, -405.000000,   1.160317, -91.292184, -136.987824,   0.262999,  -0.255523,   0.667791,  -0.647706, 
20671,  -0.256996,  -9.775986,  -0.183780,  -0.612316, -30.864588,  -0.572087,  -0.527612,   1.028206,  -0.637378, -538.500000, -124.500000, -408.000000,   1.166487, -91.287296, -136.677296,   0.264802,  -0.257287,   0.667086,  -0.647009, 
20672,  -0.152149,  -9.699674,  -0.208586,  -0.896882, -30.795876,  -0.599143,  -0.527099,   1.030649,  -0.650991, -538.500000, -124.500000, -412.500000,   1.160573, -91.292768, -136.367824,   0.266504,  -0.259137,   0.666413,  -0.646280, 
20673,  -0.168463,  -9.755859,  -0.183631,  -0.741075, -30.761452,  -0.563937,  -0.530510,   1.027754,  -0.637054, -540.000000, -124.500000, -408.000000,   1.161459, -91.292024, -136.058224,   0.268253,  -0.260927,   0.665700,  -0.645552, 
20674,  -0.211737,  -9.900529,  -0.112970,  -0.693318, -31.036046,  -0.505435,  -0.537007,   1.020787,  -0.627908, -543.000000, -126.000000, -405.000000,   1.163931, -91.283560, -135.747136,   0.270037,  -0.262698,   0.664944,  -0.644862, 
20675,  -0.230305,  -9.652151,  -0.171955,  -0.941270, -30.934904,  -0.553752,  -0.534092,   1.024045,  -0.618580, -541.500000, -124.500000, -402.000000,   1.172092, -91.284000, -135.435920,   0.271834,  -0.264458,   0.664251,  -0.644106, 
20676,  -0.276861,  -9.934380,  -0.198462,  -0.572282, -30.956336,  -0.520092,  -0.543625,   1.021424,  -0.585268, -546.000000, -123.000000, -391.500000,   1.178251, -91.276624, -135.124768,   0.273637,  -0.266211,   0.663510,  -0.643399, 
20677,  -0.165918,  -9.574643,  -0.186111,  -1.116023, -30.855508,  -0.569739,  -0.557944,   1.019981,  -0.588186, -553.500000, -123.000000, -393.000000,   1.187425, -91.279408, -134.814432,   0.275424,  -0.267961,   0.662821,  -0.642616, 
20678,  -0.245118,  -9.946054,  -0.344594,  -0.649418, -30.929122,  -0.450834,  -0.550730,   1.035820,  -0.596176, -550.500000, -118.500000, -396.000000,   1.192889, -91.279552, -134.503568,   0.277195,  -0.269725,   0.662100,  -0.641847, 
20679,  -0.192255,  -9.581975,  -0.141198,  -0.824544, -30.713900,  -0.579484,  -0.553286,   1.036997,  -0.604927, -552.000000, -118.500000, -399.000000,   1.198149, -91.278760, -134.193448,   0.278963,  -0.271484,   0.661375,  -0.641085, 
20680,  -0.275154,  -9.936527,  -0.317074,  -0.789992, -30.386300,  -0.477551,  -0.554720,   1.019255,  -0.607237, -552.000000, -124.500000, -399.000000,   1.202769, -91.278768, -133.886200,   0.280709,  -0.273232,   0.660659,  -0.640327, 
20681,  -0.191843,  -9.608180,  -0.068360,  -0.783203, -29.719746,  -0.596178,  -0.552694,   1.012828,  -0.594526, -550.500000, -126.000000, -394.500000,   1.206265, -91.276584, -133.583512,   0.282428,  -0.274955,   0.659939,  -0.639595, 
20682,  -0.277953,  -9.953788,  -0.245696,  -0.786086, -29.104822,  -0.376413,  -0.563210,   1.024328,  -0.591498, -556.500000, -121.500000, -394.500000,   1.214294, -91.271384, -133.287064,   0.284136,  -0.276599,   0.659207,  -0.638864, 
20683,  -0.165397,  -9.604127,  -0.081144,  -0.605176, -28.207664,  -0.549946,  -0.557927,   1.022788,  -0.578533, -553.500000, -121.500000, -390.000000,   1.216412, -91.264120, -132.998352,   0.285773,  -0.278228,   0.658469,  -0.638178, 
20684,  -0.230084,  -9.926888,  -0.196928,  -0.815960, -27.779188,  -0.353190,  -0.558082,   1.024780,  -0.564343, -553.500000, -120.000000, -385.500000,   1.212427, -91.257784, -132.716600,   0.287334,  -0.279853,   0.657738,  -0.637520, 
20685,  -0.201708,  -9.598567,  -0.130984,  -0.629608, -27.220680,  -0.645818,  -0.566230,   1.031482,  -0.557679, -558.000000, -117.000000, -384.000000,   1.212197, -91.251992, -132.439744,   0.288888,  -0.281430,   0.657032,  -0.636862, 
20686,  -0.178128,  -9.890956,  -0.249631,  -0.806426, -26.846100,  -0.536675,  -0.564937,   1.013376,  -0.555775, -556.500000, -123.000000, -382.500000,   1.208134, -91.253024, -132.167984,   0.290375,  -0.283015,   0.656365,  -0.636186, 
20687,  -0.146893,  -9.676758,  -0.150105,  -0.740222, -26.214202,  -0.446393,  -0.565825,   1.003691,  -0.552392, -556.500000, -126.000000, -381.000000,   1.204971, -91.251144, -131.900616,   0.291842,  -0.284555,   0.655678,  -0.635519, 
20688,  -0.112560,  -9.848661,  -0.255605,  -0.728043, -25.858638,  -0.492159,  -0.571433,   1.006409,  -0.546630, -559.500000, -124.500000, -379.500000,   1.203664, -91.253704, -131.638704,   0.293278,  -0.286065,   0.655033,  -0.634835, 
20689,  -0.251233,  -9.717637,  -0.183959,  -0.631331, -25.599974,  -0.312439,  -0.577075,   1.003514,  -0.560171, -562.500000, -126.000000, -384.000000,   1.210851, -91.245976, -131.379608,   0.294773,  -0.287486,   0.654359,  -0.634195, 
20690,  -0.194000,  -9.778138,  -0.187115,  -0.637428, -25.396804,  -0.596094,  -0.577058,   1.006321,  -0.550519, -562.500000, -124.500000, -381.000000,   1.208932, -91.244744, -131.122864,   0.296187,  -0.288960,   0.653704,  -0.633548, 
20691,  -0.322669,  -9.765160,  -0.212852,  -0.783683, -25.413958,  -0.537089,  -0.576154,   1.018813,  -0.544249, -562.500000, -120.000000, -379.500000,   1.216001, -91.243776, -130.866744,   0.297647,  -0.290381,   0.653075,  -0.632878, 
20692,  -0.198244,  -9.840643,  -0.249747,  -0.447007, -25.236872,  -0.547640,  -0.585548,   1.011394,  -0.534779, -567.000000, -121.500000, -376.500000,   1.218615, -91.250024, -130.612016,   0.299051,  -0.291833,   0.652467,  -0.632170, 
20693,  -0.272774,  -9.771193,  -0.254976,  -0.825412, -25.243418,  -0.256024,  -0.585377,   1.012208,  -0.539317, -567.000000, -121.500000, -378.000000,   1.227285, -91.258976, -130.357648,   0.300477,  -0.293253,   0.651884,  -0.631426, 
20694,  -0.264382,  -9.768277,  -0.251961,  -0.557644, -25.129694,  -0.512143,  -0.584660,   1.021079,  -0.538162, -567.000000, -118.500000, -378.000000,   1.238550, -91.264656, -130.104048,   0.301922,  -0.294647,   0.651291,  -0.630695, 
20695,  -0.250095,  -9.755404,  -0.214665,  -0.805539, -24.995112,  -0.399344,  -0.585532,   1.014200,  -0.525127, -567.000000, -120.000000, -373.500000,   1.242444, -91.269264, -129.851640,   0.303321,  -0.296072,   0.650678,  -0.629994, 
20696,  -0.251446,  -9.729264,  -0.286067,  -0.581290, -24.934490,  -0.622073,  -0.583692,   1.004152,  -0.517531, -565.500000, -123.000000, -370.500000,   1.247388, -91.276584, -129.600464,   0.304713,  -0.297492,   0.650084,  -0.629277, 
20697,  -0.183093,  -9.780490,  -0.217134,  -0.571822, -24.818062,  -0.463247,  -0.583880,   1.000531,  -0.522646, -565.500000, -124.500000, -372.000000,   1.247443, -91.276152, -129.350312,   0.306090,  -0.298912,   0.649437,  -0.628618, 
20698,  -0.186675,  -9.714767,  -0.279673,  -0.726315, -24.808774,  -0.456081,  -0.589334,   1.001257,  -0.531073, -568.500000, -124.500000, -375.000000,   1.251150, -91.279600, -129.100040,   0.307470,  -0.300315,   0.648804,  -0.627912, 
20699,  -0.119152,  -9.795568,  -0.193061,  -0.488345, -25.049204,  -0.396811,  -0.600055,   1.006330,  -0.542812, -574.500000, -123.000000, -379.500000,   1.247647, -91.270888, -128.848768,   0.308848,  -0.301731,   0.648084,  -0.627291, 
20700,  -0.181146,  -9.664021,  -0.250679,  -0.857952, -25.083918,  -0.392796,  -0.599713,   1.007959,  -0.551887, -574.500000, -123.000000, -382.500000,   1.244565, -91.281000, -128.596432,   0.310184,  -0.303201,   0.647464,  -0.626560, 
20701,  -0.104990,  -9.855272,  -0.213061,  -0.490441, -25.299406,  -0.618853,  -0.600943,   0.996644,  -0.539430, -574.500000, -126.000000, -378.000000,   1.232877, -91.279456, -128.343080,   0.311509,  -0.304693,   0.646756,  -0.625916, 
20702,  -0.190398,  -9.672349,  -0.200590,  -1.067240, -25.403584,  -0.374673,  -0.601064,   1.004249,  -0.505935, -574.500000, -121.500000, -367.500000,   1.225991, -91.285928, -128.088120,   0.312848,  -0.306190,   0.646099,  -0.625210, 
20703,  -0.145454,  -9.827863,  -0.246394,  -0.363943, -25.530908,  -0.604166,  -0.603775,   1.007419,  -0.500496, -576.000000, -120.000000, -366.000000,   1.217132, -91.287072, -127.832592,   0.314188,  -0.307682,   0.645397,  -0.624529, 
20704,  -0.141906,  -9.692027,  -0.212045,  -0.983623, -25.653492,  -0.500033,  -0.612844,   0.998822,  -0.509754, -580.500000, -123.000000, -369.000000,   1.213523, -91.290344, -127.575168,   0.315559,  -0.309157,   0.644707,  -0.623807, 
20705,  -0.121927,  -9.810793,  -0.261551,  -0.428228, -25.939558,  -0.525105,  -0.616630,   0.988685,  -0.506047, -582.000000, -126.000000, -367.500000,   1.208513, -91.289824, -127.315280,   0.316945,  -0.310643,   0.643986,  -0.623105, 
20706,  -0.200277,  -9.694250,  -0.159957,  -0.851309, -26.133136,  -0.298226,  -0.608140,   0.983612,  -0.521787, -577.500000, -129.000000, -372.000000,   1.209759, -91.286896, -127.053408,   0.318384,  -0.312100,   0.643263,  -0.622393, 
20707,  -0.174085,  -9.744298,  -0.315599,  -0.508391, -26.242166,  -0.592286,  -0.608294,   0.985604,  -0.507597, -577.500000, -127.500000, -367.500000,   1.209821, -91.293592, -126.789840,   0.319799,  -0.313599,   0.642584,  -0.621626, 
20708,  -0.205913,  -9.714713,  -0.265652,  -0.930496, -26.356256,  -0.477121,  -0.619340,   0.991855,  -0.500608, -583.500000, -124.500000, -366.000000,   1.211199, -91.300208, -126.525072,   0.321226,  -0.315097,   0.641903,  -0.620849, 
20709,  -0.205164,  -9.737649,  -0.327040,  -0.527464, -26.428772,  -0.560999,  -0.616271,   0.993121,  -0.505470, -582.000000, -124.500000, -367.500000,   1.213004, -91.305272, -126.259392,   0.322657,  -0.316585,   0.641196,  -0.620063, 
20710,  -0.163406,  -9.773063,  -0.263867,  -0.807872, -26.688520,  -0.453631,  -0.613153,   1.002806,  -0.481374, -580.500000, -120.000000, -360.000000,   1.212836, -91.310024, -125.991864,   0.324088,  -0.318094,   0.640478,  -0.619279, 
20711,  -0.191377,  -9.719425,  -0.306269,  -0.508392, -27.095692,  -0.503014,  -0.619291,   1.000274,  -0.471650, -583.500000, -120.000000, -357.000000,   1.218053, -91.314744, -125.721488,   0.325564,  -0.319589,   0.639765,  -0.618471, 
20712,  -0.225536,  -9.811741,  -0.232881,  -0.776070, -27.328974,  -0.433715,  -0.631958,   0.985162,  -0.472087, -589.500000, -124.500000, -357.000000,   1.218608, -91.316680, -125.447440,   0.327042,  -0.321123,   0.639015,  -0.617682, 
20713,  -0.313659,  -9.677667,  -0.251086,  -0.798311, -27.771528,  -0.587839,  -0.629231,   0.984799,  -0.467874, -588.000000, -124.500000, -355.500000,   1.229459, -91.321464, -125.169832,   0.328588,  -0.322628,   0.638298,  -0.616837, 
20714,  -0.278323,  -9.876240,  -0.176138,  -0.684393, -28.128870,  -0.640316,  -0.619291,   1.000274,  -0.471650, -583.500000, -120.000000, -357.000000,   1.235282, -91.317816, -124.888472,   0.330140,  -0.324149,   0.637494,  -0.616025, 
20715,  -0.284009,  -9.694429,  -0.198942,  -0.796574, -28.456248,  -0.539065,  -0.618778,   1.002718,  -0.485263, -583.500000, -120.000000, -361.500000,   1.241273, -91.319568, -124.603632,   0.331697,  -0.325703,   0.636708,  -0.615171, 
20716,  -0.212874,  -9.842243,  -0.240676,  -0.702686, -29.204110,  -0.620941,  -0.625136,   0.990952,  -0.499960, -586.500000, -124.500000, -366.000000,   1.242709, -91.327288, -124.313560,   0.333239,  -0.327329,   0.635927,  -0.614283, 
20717,  -0.256266,  -9.750738,  -0.168675,  -0.880873, -30.039624,  -0.568125,  -0.628189,   0.992492,  -0.485446, -588.000000, -123.000000, -361.500000,   1.250221, -91.325288, -124.015232,   0.334886,  -0.328939,   0.635088,  -0.613406, 
20718,  -0.212093,  -9.823796,  -0.275806,  -0.808825, -30.674594,  -0.617292,  -0.628873,   0.989234,  -0.467296, -588.000000, -123.000000, -355.500000,   1.255953, -91.330928, -123.709928,   0.336537,  -0.330619,   0.634262,  -0.612469, 
20719,  -0.249262,  -9.724647,  -0.231753,  -0.885285, -31.337876,  -0.469398,  -0.632300,   0.983533,  -0.463012, -589.500000, -124.500000, -354.000000,   1.261386, -91.329848, -123.397984,   0.338232,  -0.332307,   0.633361,  -0.611533, 
20720,  -0.297648,  -9.748411,  -0.234949,  -0.837818, -32.074432,  -0.681162,  -0.635181,   0.985888,  -0.453036, -591.000000, -123.000000, -351.000000,   1.271180, -91.331096, -123.078936,   0.339982,  -0.334019,   0.632465,  -0.610550, 
20721,  -0.245961,  -9.776673,  -0.225862,  -0.951710, -32.859280,  -0.549378,  -0.637721,   0.989872,  -0.452134, -592.500000, -121.500000, -351.000000,   1.277495, -91.334400, -122.752424,   0.341746,  -0.335797,   0.631549,  -0.609543, 
20722,  -0.151310,  -9.791523,  -0.250150,  -0.782510, -33.426616,  -0.665897,  -0.634839,   0.987517,  -0.462111, -591.000000, -123.000000, -354.000000,   1.280265, -91.338192, -122.419120,   0.343526,  -0.337633,   0.630605,  -0.608525, 
20723,  -0.197346,  -9.757380,  -0.219585,  -1.024788, -34.148296,  -0.416431,  -0.633560,   1.007251,  -0.445611, -591.000000, -115.500000, -349.500000,   1.283324, -91.342288, -122.079872,   0.345328,  -0.339492,   0.629629,  -0.607469, 
20724,  -0.115856,  -9.771100,  -0.293413,  -0.728190, -34.889828,  -0.714503,  -0.648922,   0.998114,  -0.430956, -598.500000, -117.000000, -345.000000,   1.279804, -91.350888, -121.733168,   0.347117,  -0.341438,   0.628630,  -0.606381, 
20725,  -0.250636,  -9.801958,  -0.283160,  -0.978444, -35.563468,  -0.545499,  -0.649810,   0.988429,  -0.427573, -598.500000, -120.000000, -343.500000,   1.281740, -91.358168, -121.378864,   0.348980,  -0.343393,   0.627617,  -0.605260, 
20726,  -0.228596,  -9.686703,  -0.238065,  -0.810069, -36.234184,  -0.777969,  -0.643672,   0.990961,  -0.437296, -595.500000, -120.000000, -346.500000,   1.283210, -91.363784, -121.018216,   0.350878,  -0.345380,   0.626575,  -0.604131, 
20727,  -0.233546,  -9.796000,  -0.346766,  -1.179444, -36.809092,  -0.682982,  -0.644372,   0.984896,  -0.428799, -595.500000, -121.500000, -343.500000,   1.287086, -91.375840, -120.651424,   0.352792,  -0.347398,   0.625537,  -0.602923, 
20728,  -0.164602,  -9.807707,  -0.274916,  -0.744176, -37.269560,  -0.656392,  -0.647083,   0.988066,  -0.423360, -597.000000, -120.000000, -342.000000,   1.289841, -91.376680, -120.278624,   0.354762,  -0.349416,   0.624412,  -0.601754, 
20729,  -0.221512,  -9.672539,  -0.348953,  -1.290517, -37.581592,  -0.454248,  -0.650168,   0.983993,  -0.428151, -598.500000, -121.500000, -343.500000,   1.297979, -91.395504, -119.902608,   0.356722,  -0.351481,   0.623388,  -0.600462, 
20730,  -0.253262,  -9.860383,  -0.284531,  -0.545061, -37.973704,  -0.643500,  -0.658845,   0.985445,  -0.417526, -603.000000, -120.000000, -340.500000,   1.302338, -91.396128, -119.523296,   0.358734,  -0.353526,   0.622247,  -0.599269, 
20731,  -0.314346,  -9.667677,  -0.219215,  -1.396927, -37.955976,  -0.653537,  -0.659188,   0.983816,  -0.408451, -603.000000, -120.000000, -337.500000,   1.315734, -91.405360, -119.141560,   0.360767,  -0.355550,   0.621146,  -0.597970, 
20732,  -0.327581,  -9.844248,  -0.324943,  -0.733509, -37.744300,  -0.711124,  -0.664813,   0.983728,  -0.412341, -606.000000, -120.000000, -339.000000,   1.325888, -91.407584, -118.761432,   0.362795,  -0.357561,   0.620004,  -0.596723, 
20733,  -0.333002,  -9.645818,  -0.175667,  -1.256089, -37.618584,  -0.715614,  -0.673849,   0.980744,  -0.402293, -610.500000, -120.000000, -336.000000,   1.340758, -91.408904, -118.382472,   0.364844,  -0.359539,   0.618875,  -0.595469, 
20734,  -0.314285,  -9.916864,  -0.283975,  -0.728926, -37.285856,  -0.741608,  -0.675967,   0.959744,  -0.386454, -610.500000, -126.000000, -330.000000,   1.354420, -91.404976, -118.006144,   0.366885,  -0.361487,   0.617716,  -0.594248, 
20735,  -0.269108,  -9.652070,  -0.130343,  -1.018425, -37.032044,  -0.719981,  -0.672865,   0.966623,  -0.372010, -609.000000, -123.000000, -325.500000,   1.364045, -91.403504, -117.633120,   0.368869,  -0.363437,   0.616552,  -0.593020, 
20736,  -0.408148,  -9.860749,  -0.315063,  -0.852435, -36.628540,  -0.599780,  -0.677911,   0.980204,  -0.350902, -612.000000, -117.000000, -319.500000,   1.384296, -91.400864, -117.262816,   0.370899,  -0.365312,   0.615424,  -0.591772, 
20737,  -0.316278,  -9.680698,  -0.203894,  -0.958193, -36.133192,  -0.616319,  -0.678098,   0.976583,  -0.356017, -612.000000, -118.500000, -321.000000,   1.403802, -91.397320, -116.897400,   0.372903,  -0.367163,   0.614305,  -0.590546, 
20738,  -0.364502,  -9.842181,  -0.330659,  -0.842851, -35.759892,  -0.625822,  -0.677944,   0.974591,  -0.370207, -612.000000, -120.000000, -325.500000,   1.421240, -91.398464, -116.535808,   0.374852,  -0.369012,   0.613203,  -0.589302, 
20739,  -0.423277,  -9.627081,  -0.203475,  -0.966294, -35.207816,  -0.573858,  -0.675746,   0.968978,  -0.362034, -610.500000, -121.500000, -322.500000,   1.444325, -91.395144, -116.179096,   0.376813,  -0.370784,   0.612101,  -0.588066, 
20740,  -0.411220,  -9.823704,  -0.315060,  -0.858098, -34.719772,  -0.764163,  -0.669967,   0.967075,  -0.372334, -607.500000, -123.000000, -325.500000,   1.467559, -91.400280, -115.827648,   0.378720,  -0.372555,   0.611060,  -0.586801, 
20741,  -0.366244,  -9.754887,  -0.240317,  -0.758096, -34.113756,  -0.499909,  -0.669079,   0.976760,  -0.375717, -607.500000, -120.000000, -327.000000,   1.487256, -91.393552, -115.481464,   0.380619,  -0.374278,   0.609965,  -0.585628, 
20742,  -0.394662,  -9.753698,  -0.181512,  -0.837966, -33.527076,  -0.620910,  -0.669233,   0.978752,  -0.361527, -607.500000, -118.500000, -322.500000,   1.508489, -91.387040, -115.141208,   0.382488,  -0.375955,   0.608885,  -0.584456, 
20743,  -0.406952,  -9.737602,  -0.229986,  -0.901124, -32.957340,  -0.567968,  -0.678628,   0.971333,  -0.352057, -612.000000, -120.000000, -319.500000,   1.528980, -91.384176, -114.806712,   0.384305,  -0.377611,   0.607830,  -0.583276, 
20744,  -0.374855,  -9.840696,  -0.154276,  -0.571315, -32.629708,  -0.715167,  -0.688348,   0.965092,  -0.323860, -616.500000, -120.000000, -310.500000,   1.542630, -91.373584, -114.477352,   0.386085,  -0.379250,   0.606731,  -0.582177, 
20745,  -0.413023,  -9.676290,  -0.139694,  -1.079317, -31.880826,  -0.620429,  -0.691946,   0.958576,  -0.315039, -618.000000, -121.500000, -307.500000,   1.562073, -91.365576, -114.152448,   0.387864,  -0.380843,   0.605680,  -0.581059, 
20746,  -0.346215,  -9.844995,  -0.130459,  -0.626616, -31.277548,  -0.735268,  -0.683235,   0.962737,  -0.306358, -613.500000, -120.000000, -304.500000,   1.576516, -91.346472, -113.833864,   0.389619,  -0.382388,   0.604572,  -0.580032, 
20747,  -0.321285,  -9.709915,  -0.052869,  -0.913193, -30.697664,  -0.536657,  -0.688999,   0.967447,  -0.286405, -616.500000, -117.000000, -298.500000,   1.590431, -91.327456, -113.521664,   0.391329,  -0.383893,   0.603470,  -0.579012, 
20748,  -0.302101,  -9.818482,  -0.182637,  -0.646233, -29.755418,  -0.551788,  -0.698222,   0.960842,  -0.281473, -621.000000, -118.500000, -297.000000,   1.602919, -91.309488, -113.217376,   0.392988,  -0.385366,   0.602396,  -0.578019, 
20749,  -0.308502,  -9.713421,  -0.102350,  -0.885812, -28.757326,  -0.310418,  -0.694607,   0.970165,  -0.280642, -619.500000, -115.500000, -297.000000,   1.616626, -91.290312, -112.922128,   0.394612,  -0.386781,   0.601350,  -0.577058, 
20750,  -0.347667,  -9.816538,  -0.175893,  -0.393841, -27.665144,  -0.477058,  -0.700403,   0.969262,  -0.279994, -622.500000, -115.500000, -297.000000,   1.625692, -91.274200, -112.637880,   0.396146,  -0.388173,   0.600343,  -0.576134, 
20751,  -0.312009,  -9.682708,  -0.086421,  -0.982459, -26.418940,  -0.583243,  -0.696992,   0.972157,  -0.293931, -621.000000, -115.500000, -301.500000,   1.633399, -91.261512, -112.365216,   0.397599,  -0.389516,   0.599379,  -0.575229, 
20752,  -0.374935,  -9.847805,  -0.144249,  -0.500222, -25.396536,  -0.481439,  -0.706729,   0.963109,  -0.275386, -625.500000, -117.000000, -295.500000,   1.640955, -91.242456, -112.103624,   0.399011,  -0.390775,   0.598412,  -0.574387, 
20753,  -0.254007,  -9.669436,  -0.041127,  -0.795025, -23.955048,  -0.537403,  -0.695308,   0.964100,  -0.272145, -619.500000, -117.000000, -294.000000,   1.646302, -91.219984, -111.854128,   0.400363,  -0.391969,   0.597463,  -0.573612, 
20754,  -0.266222,  -9.818071,  -0.164074,  -0.543891, -22.851924,  -0.410602,  -0.699264,   0.953149,  -0.263901, -621.000000, -120.000000, -291.000000,   1.652658, -91.202664, -111.617792,   0.401637,  -0.393107,   0.596588,  -0.572853, 
20755,  -0.272567,  -9.784586,  -0.044295,  -0.369777, -21.721940,  -0.284172,  -0.699623,   0.948713,  -0.264478, -621.000000, -121.500000, -291.000000,   1.658033, -91.175328, -111.392640,   0.402884,  -0.394157,   0.595698,  -0.572187, 
20756,  -0.273015,  -9.659263,  -0.067819,  -0.626411, -20.779180,  -0.435606,  -0.700728,   0.970439,  -0.261267, -622.500000, -114.000000, -291.000000,   1.661376, -91.159456, -111.178144,   0.404030,  -0.395201,   0.594896,  -0.571507, 
20757,  -0.278816,  -9.890804,  -0.111102,  -0.420991, -19.979052,  -0.436533,  -0.704327,   0.963923,  -0.252445, -624.000000, -115.500000, -288.000000,   1.653442, -91.141864, -110.972624,   0.405074,  -0.396245,   0.594071,  -0.570900, 
20758,  -0.236174,  -9.589124,  -0.049792,  -0.758690, -19.409448,  -0.534569,  -0.700307,   0.945455,  -0.246328, -621.000000, -121.500000, -285.000000,   1.648674, -91.130144, -110.773536,   0.406078,  -0.397256,   0.593302,  -0.570269, 
20759,  -0.239649,  -9.872339,  -0.274864,  -0.367113, -18.867072,  -0.407480,  -0.708284,   0.952972,  -0.244201, -625.500000, -118.500000, -285.000000,   1.648755, -91.127400, -110.580272,   0.407048,  -0.398244,   0.592616,  -0.569595, 
20760,  -0.197525,  -9.692006,  -0.101509,  -0.535109, -18.456574,  -0.227979,  -0.711011,   0.953335,  -0.248415, -627.000000, -118.500000, -286.500000,   1.645997, -91.111848, -110.391760,   0.408024,  -0.399177,   0.591872,  -0.569014, 
20761,  -0.256861,  -9.766065,  -0.187575,  -0.634575, -18.100716,  -0.266267,  -0.711182,   0.952520,  -0.243877, -627.000000, -118.500000, -285.000000,   1.646853, -91.108512, -110.207624,   0.408954,  -0.400111,   0.591217,  -0.568372, 
20762,  -0.235932,  -9.731380,  -0.136051,  -0.400423, -17.906674,  -0.486517,  -0.714235,   0.954061,  -0.229363, -628.500000, -117.000000, -280.500000,   1.642181, -91.098464, -110.025544,   0.409870,  -0.401039,   0.590517,  -0.567792, 
20763,  -0.279863,  -9.787885,  -0.161204,  -0.690100, -17.656388,  -0.380826,  -0.711353,   0.951706,  -0.239340, -627.000000, -118.500000, -283.500000,   1.638214, -91.096456, -109.846040,   0.410748,  -0.401979,   0.589868,  -0.567178, 
20764,  -0.110651,  -9.733053,  -0.144561,  -0.407651, -17.764178,  -0.457956,  -0.707959,   0.951794,  -0.262929, -625.500000, -120.000000, -291.000000,   1.621432, -91.093528, -109.667488,   0.411560,  -0.402975,   0.589173,  -0.566618, 
20765,  -0.102225,  -9.774918,  -0.247675,  -0.599633, -17.950750,  -0.303831,  -0.708847,   0.942109,  -0.259546, -625.500000, -123.000000, -289.500000,   1.607397, -91.096984, -109.487464,   0.412364,  -0.403980,   0.588503,  -0.566000, 
20766,  -0.144311,  -9.842632,  -0.251116,  -0.141014, -18.564658,  -0.312587,  -0.715873,   0.929891,  -0.246441, -628.500000, -126.000000, -285.000000,   1.591362, -91.101352, -109.303408,   0.413174,  -0.405019,   0.587816,  -0.565371, 
20767,  -0.105845,  -9.709341,  -0.195198,  -0.764719, -19.207622,  -0.304773,  -0.718037,   0.941117,  -0.235309, -630.000000, -121.500000, -282.000000,   1.573643, -91.112704, -109.112928,   0.413983,  -0.406125,   0.587135,  -0.564689, 
20768,  -0.168651,  -9.860968,  -0.188753,  -0.375793, -19.756962,  -0.475604,  -0.717866,   0.941932,  -0.239847, -630.000000, -121.500000, -283.500000,   1.556879, -91.111984, -108.916312,   0.414870,  -0.407214,   0.586376,  -0.564043, 
20769,  -0.140683,  -9.703525,  -0.139847,  -0.644885, -20.236556,  -0.445508,  -0.718583,   0.933061,  -0.241002, -630.000000, -124.500000, -283.500000,   1.543014, -91.113448, -108.714792,   0.415788,  -0.408320,   0.585620,  -0.563358, 
20770,  -0.145975,  -9.875253,  -0.183282,  -0.480517, -20.779242,  -0.381782,  -0.718037,   0.941117,  -0.235309, -630.000000, -121.500000, -282.000000,   1.528324, -91.110000, -108.507696,   0.416747,  -0.409442,   0.584816,  -0.562682, 
20771,  -0.067656,  -9.683360,  -0.126699,  -0.609017, -21.216394,  -0.300067,  -0.714626,   0.944012,  -0.249246, -628.500000, -121.500000, -286.500000,   1.510995, -91.107856, -108.296080,   0.417710,  -0.410604,   0.583994,  -0.561992, 
20772,  -0.105333,  -9.862826,  -0.280348,  -0.612058, -21.926542,  -0.394912,  -0.712583,   0.940391,  -0.226882, -627.000000, -121.500000, -279.000000,   1.493237, -91.117816, -108.078392,   0.418649,  -0.411835,   0.583194,  -0.561209, 
20773,  -0.081661,  -9.728969,  -0.145195,  -0.509019, -22.703784,  -0.418223,  -0.715603,   0.947545,  -0.193063, -628.500000, -117.000000, -268.500000,   1.472196, -91.117248, -107.853312,   0.419646,  -0.413080,   0.582304,  -0.560464, 
20774,  -0.095849,  -9.778338,  -0.293793,  -0.833005, -23.438572,  -0.450318,  -0.715244,   0.951980,  -0.192485, -628.500000, -115.500000, -268.500000,   1.449739, -91.133480, -107.621784,   0.420606,  -0.414426,   0.581467,  -0.559616, 
20775,   0.023250,  -9.787357,  -0.328584,  -0.602660, -24.467242,  -0.489265,  -0.712550,   0.946004,  -0.207577, -627.000000, -118.500000, -273.000000,   1.420671, -91.148432, -107.381080,   0.421583,  -0.415848,   0.580567,  -0.558766, 
20776,  -0.033407,  -9.701634,  -0.366456,  -0.820074, -25.609244,  -0.471336,  -0.720886,   0.949085,  -0.206027, -631.500000, -117.000000, -273.000000,   1.403952, -91.176360, -107.129696,   0.422627,  -0.417310,   0.579734,  -0.557766, 
20777,   0.009295,  -9.830322,  -0.355471,  -0.450242, -26.799958,  -0.436199,  -0.727195,   0.945739,  -0.191767, -634.500000, -117.000000, -268.500000,   1.378529, -91.193056, -106.866088,   0.423726,  -0.418834,   0.578769,  -0.556809, 
20778,  -0.094206,  -9.667893,  -0.264788,  -1.101028, -27.956654,  -0.394296,  -0.719372,   0.940214,  -0.179704, -630.000000, -118.500000, -264.000000,   1.368255, -91.208376, -106.590472,   0.424952,  -0.420327,   0.577790,  -0.555744, 
20779,  -0.153017,  -9.884334,  -0.334685,  -0.479564, -29.014512,  -0.553227,  -0.730948,   0.941215,  -0.168756, -636.000000, -117.000000, -261.000000,   1.353600, -91.219712, -106.304008,   0.426223,  -0.421882,   0.576736,  -0.554675, 
20780,  -0.117979,  -9.576908,  -0.202936,  -0.905773, -29.959720,  -0.610494,  -0.737118,   0.933070,  -0.178338, -639.000000, -120.000000, -264.000000,   1.343353, -91.229672, -106.007672,   0.427568,  -0.423460,   0.575655,  -0.553560, 
20781,  -0.190629,  -9.878849,  -0.376405,  -0.385227, -31.071098,  -0.650614,  -0.737665,   0.925013,  -0.184030, -639.000000, -123.000000, -265.500000,   1.335484, -91.241544, -105.701320,   0.428967,  -0.425084,   0.574553,  -0.552390, 
20782,  -0.182606,  -9.717195,  -0.253677,  -0.873853, -31.925196,  -0.505816,  -0.729484,   0.923924,  -0.171390, -634.500000, -123.000000, -261.000000,   1.333504, -91.251360, -105.384488,   0.430449,  -0.426720,   0.573419,  -0.551164, 
20783,  -0.241584,  -9.820387,  -0.349466,  -0.837362, -32.777482,  -0.546665,  -0.715165,   0.925367,  -0.168472, -627.000000, -123.000000, -259.500000,   1.336313, -91.264368, -105.059696,   0.431970,  -0.428374,   0.572274,  -0.549860, 
20784,  -0.182313,  -9.737373,  -0.207656,  -0.860264, -33.171036,  -0.588721,  -0.721132,   0.923649,  -0.163287, -630.000000, -123.000000, -258.000000,   1.334560, -91.268200, -104.728032,   0.433536,  -0.430050,   0.571042,  -0.548593, 
20785,  -0.228875,  -9.784307,  -0.289543,  -1.005351, -33.535606,  -0.430474,  -0.717704,   0.929351,  -0.167571, -628.500000, -121.500000, -259.500000,   1.336004, -91.280216, -104.392704,   0.435103,  -0.431761,   0.569847,  -0.547260, 
20786,  -0.194718,  -9.770267,  -0.287443,  -0.734743, -33.491192,  -0.514700,  -0.719902,   0.934964,  -0.175744, -630.000000, -120.000000, -262.500000,   1.339931, -91.284480, -104.056240,   0.436717,  -0.433435,   0.568620,  -0.545951, 
20787,  -0.301356,  -9.736332,  -0.225526,  -0.622773, -33.457860,  -0.517709,  -0.723142,   0.932884,  -0.166345, -631.500000, -120.000000, -259.500000,   1.343464, -91.282032, -103.719744,   0.438339,  -0.435071,   0.567338,  -0.544657, 
20788,  -0.313557,  -9.888044,  -0.248868,  -0.749863, -33.314160,  -0.694483,  -0.717346,   0.933787,  -0.166993, -628.500000, -120.000000, -259.500000,   1.349385, -91.289496, -103.383936,   0.439932,  -0.436729,   0.566116,  -0.543308, 
20789,  -0.311952,  -9.646937,  -0.254921,  -0.907655, -32.935376,  -0.527036,  -0.723467,   0.934061,  -0.147618, -631.500000, -118.500000, -253.500000,   1.361933, -91.298232, -103.051272,   0.441537,  -0.438346,   0.564936,  -0.541938, 
20790,  -0.295851,  -9.886797,  -0.321915,  -0.706191, -32.353000,  -0.589896,  -0.740058,   0.913610,  -0.120505, -639.000000, -123.000000, -244.500000,   1.374322, -91.308032, -102.723368,   0.443113,  -0.439945,   0.563780,  -0.540582, 
20791,  -0.381653,  -9.621462,  -0.243882,  -0.845549, -32.049664,  -0.479672,  -0.738236,   0.900755,  -0.122562, -637.500000, -127.500000, -244.500000,   1.397582, -91.309264, -102.398776,   0.444747,  -0.441430,   0.562621,  -0.539223, 
20792,  -0.384526,  -9.845743,  -0.278286,  -0.664438, -31.615088,  -0.654652,  -0.734450,   0.910892,  -0.126268, -636.000000, -124.500000, -246.000000,   1.415456, -91.317080, -102.079184,   0.446302,  -0.442940,   0.561488,  -0.537868, 
20793,  -0.426074,  -9.637009,  -0.260749,  -0.762032, -31.054176,  -0.602247,  -0.736631,   0.919312,  -0.124789, -637.500000, -121.500000, -246.000000,   1.441827, -91.312240, -101.763808,   0.447926,  -0.444338,   0.560344,  -0.536555, 
20794,  -0.354508,  -9.892680,  -0.209045,  -0.611392, -30.583040,  -0.600919,  -0.733171,   0.930626,  -0.109768, -636.000000, -117.000000, -241.500000,   1.460425, -91.307840, -101.454072,   0.449483,  -0.445748,   0.559195,  -0.535293, 
20795,  -0.398043,  -9.681658,  -0.145488,  -0.762551, -30.217374,  -0.482950,  -0.742549,   0.926014,  -0.090646, -640.500000, -117.000000, -235.500000,   1.480378, -91.299352, -101.148144,   0.451040,  -0.447112,   0.558041,  -0.534054, 
20796,  -0.379824,  -9.775637,  -0.174334,  -0.691683, -30.022564,  -0.626658,  -0.749762,   0.910175,  -0.082656, -643.500000, -121.500000, -232.500000,   1.496470, -91.296576, -100.845464,   0.452532,  -0.448492,   0.556900,  -0.532803, 
20797,  -0.501575,  -9.797000,  -0.178207,  -0.743304, -30.012976,  -0.513918,  -0.743420,   0.919135,  -0.077611, -640.500000, -118.500000, -231.000000,   1.515632, -91.288464, -100.543192,   0.454056,  -0.449834,   0.555748,  -0.531567, 
20798,  -0.394769,  -9.760818,  -0.165583,  -0.458537, -29.917080,  -0.770166,  -0.743591,   0.918320,  -0.073073, -640.500000, -118.500000, -229.500000,   1.536044, -91.284488, -100.242016,   0.455565,  -0.451182,   0.554626,  -0.530309, 
20799,  -0.392568,  -9.883808,  -0.129060,  -0.671712, -29.701230,  -0.403155,  -0.750292,   0.904925,  -0.078696, -643.500000, -123.000000, -231.000000,   1.549559, -91.273648, -99.941992,   0.457063,  -0.452530,   0.553450,  -0.529117, 
20800,  -0.497498,  -9.798834,  -0.153391,  -0.545887, -29.150464,  -0.496419,  -0.738700,   0.906731,  -0.079992, -637.500000, -123.000000, -231.000000,   1.576631, -91.262912, -99.645336,   0.458599,  -0.453788,   0.552329,  -0.527870, 
20801,  -0.339254,  -9.848657,  -0.082016,  -0.954603, -28.811882,  -0.573233,  -0.732358,   0.915691,  -0.074947, -634.500000, -120.000000, -229.500000,   1.587246, -91.251456, -99.353944,   0.460031,  -0.455091,   0.551157,  -0.526709, 
20802,  -0.418009,  -9.749466,  -0.182273,  -0.624701, -28.438708,  -0.510751,  -0.735631,   0.907997,  -0.084853, -636.000000, -123.000000, -232.500000,   1.603211, -91.235712, -99.065544,   0.461491,  -0.456337,   0.549998,  -0.525558, 
20803,  -0.250719,  -9.741515,  -0.055906,  -0.733121, -28.127532,  -0.593446,  -0.747565,   0.904562,  -0.074482, -642.000000, -123.000000, -229.500000,   1.604967, -91.223616, -98.780992,   0.462854,  -0.457646,   0.548817,  -0.524463, 
20804,  -0.306423,  -9.741947,  -0.337240,  -0.828173, -28.162150,  -0.447158,  -0.745163,   0.905377,  -0.051541, -640.500000, -121.500000, -222.000000,   1.616305, -91.224496, -98.497704,   0.464203,  -0.458957,   0.547738,  -0.523272, 
20805,  -0.303910,  -9.741573,  -0.226270,  -0.562528, -28.206872,  -0.375403,  -0.734084,   0.904739,  -0.039224, -634.500000, -121.500000, -217.500000,   1.621402, -91.221664, -98.213520,   0.465531,  -0.460275,   0.546601,  -0.522107, 
20806,  -0.336282,  -9.776235,  -0.264896,  -0.847538, -28.384518,  -0.451322,  -0.738821,   0.914336,  -0.046497, -637.500000, -118.500000, -220.500000,   1.632626, -91.228208, -97.929224,   0.466847,  -0.461601,   0.545527,  -0.520869, 
20807,  -0.394986,  -9.856431,  -0.228798,  -0.728255, -28.482736,  -0.469159,  -0.750772,   0.908095,  -0.045778, -643.500000, -120.000000, -220.500000,   1.649336, -91.226736, -97.642968,   0.468229,  -0.462877,   0.544431,  -0.519638, 
20808,  -0.283787,  -9.729968,  -0.154702,  -0.617998, -28.625414,  -0.487885,  -0.751489,   0.899224,  -0.046933, -643.500000, -123.000000, -220.500000,   1.659095, -91.222416, -97.355176,   0.469598,  -0.464182,   0.543288,  -0.518442, 
20809,  -0.317575,  -9.718725,  -0.089438,  -0.921303, -28.891226,  -0.417623,  -0.735907,   0.917594,  -0.037168, -636.000000, -117.000000, -217.500000,   1.662537, -91.201816, -97.064808,   0.471015,  -0.465462,   0.542037,  -0.517339, 
20810,  -0.314041,  -9.780088,  -0.147880,  -0.546186, -29.222872,  -0.741392,  -0.750739,   0.913708,  -0.026473, -643.500000, -117.000000, -214.500000,   1.662756, -91.185640, -96.772096,   0.472397,  -0.466772,   0.540769,  -0.516204, 
20811,  -0.159920,  -9.706375,  -0.084123,  -1.012845, -29.487704,  -0.551070,  -0.759637,   0.905926,  -0.040269, -648.000000, -120.000000, -219.000000,   1.653642, -91.164840, -96.476488,   0.473766,  -0.468119,   0.539429,  -0.515117, 
20812,  -0.113053,  -9.822671,  -0.249099,  -0.732742, -29.799088,  -0.431675,  -0.753311,   0.912079,  -0.044877, -645.000000, -118.500000, -220.500000,   1.644039, -91.161544, -96.178744,   0.475073,  -0.469549,   0.538158,  -0.513940, 
20813,  -0.234869,  -9.647458,  -0.143068,  -0.928713, -30.510228,  -0.420360,  -0.751113,   0.906466,  -0.036703, -643.500000, -120.000000, -217.500000,   1.635997, -91.148712, -95.875200,   0.476452,  -0.470960,   0.536826,  -0.512778, 
20814,  -0.096112,  -9.840951,  -0.307412,  -0.808153, -31.383412,  -0.643416,  -0.746377,   0.896869,  -0.029431, -640.500000, -123.000000, -214.500000,   1.623242, -91.161464, -95.564584,   0.477734,  -0.472529,   0.535557,  -0.511484, 
20815,  -0.223186,  -9.785610,  -0.236911,  -0.928833, -32.244416,  -0.329331,  -0.749429,   0.898409,  -0.014917, -642.000000, -121.500000, -210.000000,   1.616313, -91.159544, -95.244240,   0.479133,  -0.474043,   0.534192,  -0.510179, 
20816,  -0.059929,  -9.738995,  -0.238614,  -0.844873, -33.358070,  -0.626686,  -0.746719,   0.895240,  -0.020356, -640.500000, -123.000000, -211.500000,   1.598099, -91.175600, -94.914872,   0.480446,  -0.475725,   0.532823,  -0.508801, 
20817,  -0.175580,  -9.850215,  -0.236010,  -0.966051, -34.281696,  -0.383343,  -0.741281,   0.891707,  -0.021582, -637.500000, -124.500000, -211.500000,   1.587628, -91.172240, -94.574360,   0.481925,  -0.477342,   0.531352,  -0.507434, 
20818,  -0.160362,  -9.778497,  -0.068241,  -0.893922, -34.870976,  -0.775947,  -0.750113,   0.895151,   0.003232, -642.000000, -121.500000, -204.000000,   1.578985, -91.166552, -94.226760,   0.483454,  -0.478974,   0.529848,  -0.506041, 
20819,  -0.054879,  -9.763925,  -0.189609,  -1.183657, -35.474040,  -0.546171,  -0.763448,   0.879587,   0.030598, -648.000000, -124.500000, -195.000000,   1.559470, -91.161376, -93.874088,   0.484937,  -0.480662,   0.528262,  -0.504652, 
20820,  -0.107842,  -9.761448,  -0.135117,  -0.993153, -36.186228,  -0.565429,  -0.760754,   0.873611,   0.015506, -646.500000, -127.500000, -199.500000,   1.544168, -91.147120, -93.513552,   0.486511,  -0.482328,   0.526619,  -0.503253, 
20821,  -0.103116,  -9.859630,  -0.098558,  -1.403627, -36.897420,  -0.660912,  -0.747386,   0.894788,   0.007445, -640.500000, -121.500000, -202.500000,   1.522228, -91.139208, -93.145992,   0.488061,  -0.484083,   0.524947,  -0.501824, 
20822,  -0.149358,  -9.691500,  -0.091117,  -1.518590, -37.599292,  -0.539270,  -0.745514,   0.890353,   0.034346, -639.000000, -121.500000, -193.500000,   1.506082, -91.135064, -92.771688,   0.489649,  -0.485855,   0.523284,  -0.500323, 
20823,  -0.082706,  -9.834344,  -0.076553,  -1.028418, -38.046216,  -0.738110,  -0.742958,   0.889175,   0.043098, -637.500000, -121.500000, -190.500000,   1.492044, -91.129224, -92.391440,   0.491263,  -0.487620,   0.521578,  -0.498777, 
20824,  -0.137230,  -9.819189,  -0.091638,  -1.221659, -38.429660,  -0.426976,  -0.751139,   0.890264,   0.030457, -642.000000, -121.500000, -195.000000,   1.478123, -91.119560, -92.006952,   0.492912,  -0.489387,   0.519837,  -0.497229, 
20825,  -0.136566,  -9.793998,  -0.046239,  -0.855063, -38.776776,  -0.879724,  -0.758336,   0.877232,   0.048100, -645.000000, -124.500000, -189.000000,   1.465721, -91.112320, -91.618904,   0.494574,  -0.491172,   0.518099,  -0.495649, 
20826,  -0.074388,  -9.795865,  -0.060203,  -0.970001, -39.253404,  -0.585822,  -0.759020,   0.873974,   0.066250, -645.000000, -124.500000, -183.000000,   1.440541, -91.096904, -91.227144,   0.496222,  -0.492986,   0.516245,  -0.494137, 
20827,   0.029458,  -9.736032,  -0.119322,  -0.960051, -39.825740,  -0.786379,  -0.756122,   0.874426,   0.065926, -643.500000, -124.500000, -183.000000,   1.417081, -91.080176, -90.829920,   0.497897,  -0.494799,   0.514357,  -0.492588, 
20828,   0.101954,  -9.796797,   0.056520,  -1.120383, -40.590052,  -0.719530,  -0.751978,   0.888998,   0.062797, -642.000000, -120.000000, -184.500000,   1.378601, -91.047696, -90.425488,   0.499605,  -0.496639,   0.512305,  -0.491144, 
20829,   0.039801,  -9.733314,  -0.014784,  -1.036274, -41.462560,  -0.825002,  -0.746198,   0.887095,   0.052496, -639.000000, -121.500000, -187.500000,   1.348201, -91.021224, -90.012496,   0.501361,  -0.498506,   0.510275,  -0.489600, 
20830,   0.103917,  -9.808409,   0.081183,  -1.028813, -42.180896,  -0.971128,  -0.746010,   0.890716,   0.057611, -639.000000, -120.000000, -186.000000,   1.312136, -90.990464, -89.591344,   0.503127,  -0.500391,   0.508145,  -0.488044, 
20831,   0.025919,  -9.720918,   0.022300,  -1.074303, -42.680492,  -0.690407,  -0.755389,   0.886103,   0.076733, -643.500000, -120.000000, -180.000000,   1.282770, -90.955312, -89.164744,   0.504965,  -0.502250,   0.506001,  -0.486452, 
20832,   0.072732,  -9.754193,   0.089381,  -0.923633, -43.138352,  -1.056603,  -0.762927,   0.871442,   0.103452, -646.500000, -123.000000, -171.000000,   1.251276, -90.921312, -88.733160,   0.506813,  -0.504143,   0.503830,  -0.484842, 
20833,  -0.040965,  -9.864337,   0.073048,  -1.176197, -43.436500,  -0.713664,  -0.760714,   0.868636,   0.121277, -645.000000, -123.000000, -165.000000,   1.220665, -90.885496, -88.297480,   0.508675,  -0.506024,   0.501622,  -0.483203, 
20834,   0.015420,  -9.672331,   0.257403,  -1.070442, -43.344376,  -1.208864,  -0.755089,   0.868724,   0.125167, -642.000000, -123.000000, -163.500000,   1.200416, -90.836280, -87.860248,   0.510643,  -0.507798,   0.499389,  -0.481561, 
20835,   0.030330,  -9.889653,   0.184513,  -1.105833, -43.258460,  -0.657508,  -0.763595,   0.870991,   0.131254, -646.500000, -121.500000, -162.000000,   1.168409, -90.780752, -87.424408,   0.512586,  -0.509586,   0.497084,  -0.480004, 
20836,   0.019267,  -9.714226,   0.180813,  -0.954496, -43.137260,  -0.855789,  -0.769391,   0.870088,   0.131902, -649.500000, -121.500000, -162.000000,   1.144545, -90.735744, -86.989440,   0.514504,  -0.511369,   0.494854,  -0.478359, 
20837,   0.205113,  -9.863072,   0.127408,  -1.051863, -43.046132,  -0.862012,  -0.766493,   0.870539,   0.131578, -648.000000, -121.500000, -162.000000,   1.099594, -90.699136, -86.556184,   0.516278,  -0.513256,   0.492560,  -0.476767, 
20838,   0.201833,  -9.667631,   0.149156,  -0.933061, -43.263164,  -0.726279,  -0.761056,   0.867007,   0.130352, -645.000000, -123.000000, -162.000000,   1.049658, -90.655336, -86.121704,   0.518071,  -0.515135,   0.490209,  -0.475224, 
20839,   0.275595,  -9.853179,   0.055940,  -1.160197, -43.588748,  -0.907658,  -0.758329,   0.866644,   0.134566, -643.500000, -123.000000, -160.500000,   0.994791, -90.641048, -85.686192,   0.519713,  -0.517165,   0.487948,  -0.473567, 
20840,   0.380762,  -9.797840,   0.009286,  -0.936939, -44.458048,  -0.902270,  -0.756457,   0.862208,   0.161467, -642.000000, -123.000000, -151.500000,   0.934000, -90.621920, -85.244128,   0.521362,  -0.519204,   0.485591,  -0.471913, 
20841,   0.310153,  -9.792752,  -0.100744,  -1.187173, -46.283028,  -0.703438,  -0.753746,   0.859039,   0.156028, -640.500000, -124.500000, -153.000000,   0.877582, -90.614440, -84.788136,   0.523036,  -0.521335,   0.483237,  -0.470127, 
20842,   0.340759,  -9.707622,  -0.116327,  -1.031134, -48.601788,  -1.015608,  -0.745940,   0.850708,   0.158438, -636.000000, -127.500000, -151.500000,   0.821445, -90.618864, -84.312584,   0.524737,  -0.523595,   0.480840,  -0.468199, 
20843,   0.286283,  -9.809123,  -0.143425,  -1.294565, -51.114524,  -0.981925,  -0.753697,   0.867458,   0.184986, -640.500000, -120.000000, -144.000000,   0.766642, -90.628944, -83.812128,   0.526497,  -0.525954,   0.478333,  -0.466109, 
20844,   0.237964,  -9.769270,  -0.071496,  -1.114128, -53.156740,  -1.128392,  -0.754039,   0.865829,   0.194060, -640.500000, -120.000000, -141.000000,   0.717308, -90.627720, -83.288432,   0.528428,  -0.528335,   0.475697,  -0.463935, 
20845,   0.256359,  -9.743534,  -0.075144,  -1.314749, -54.913484,  -1.093158,  -0.754910,   0.858950,   0.207095, -640.500000, -121.500000, -136.500000,   0.673192, -90.625648, -82.745608,   0.530451,  -0.530754,   0.472980,  -0.461643, 
20846,   0.100154,  -9.841724,  -0.072048,  -1.166514, -56.121272,  -1.019184,  -0.759989,   0.866918,   0.208898, -643.500000, -118.500000, -136.500000,   0.641748, -90.622360, -82.187952,   0.532575,  -0.533158,   0.470230,  -0.459213, 
20847,   0.082436,  -9.703714,  -0.136020,  -1.268320, -57.191600,  -1.237556,  -0.757279,   0.863749,   0.203459, -642.000000, -120.000000, -138.000000,   0.618972, -90.631440, -81.619128,   0.534722,  -0.535628,   0.467516,  -0.456642, 
20848,  -0.024362,  -9.819674,  -0.077157,  -1.201276, -58.122568,  -1.186635,  -0.747104,   0.850619,   0.209506, -636.000000, -124.500000, -135.000000,   0.599859, -90.636336, -81.040520,   0.536914,  -0.538074,   0.464729,  -0.454000, 
20849,  -0.120539,  -9.766161,  -0.115149,  -1.359547, -58.550916,  -0.940703,  -0.751216,   0.841660,   0.231940, -637.500000, -126.000000, -127.500000,   0.593567, -90.642448, -80.455304,   0.539174,  -0.540496,   0.461972,  -0.451260, 
20850,  -0.200081,  -9.764336,  -0.287479,  -1.396568, -58.817588,  -0.919740,  -0.754268,   0.843200,   0.246454, -639.000000, -124.500000, -123.000000,   0.604100, -90.671088, -79.866632,   0.541391,  -0.542956,   0.459351,  -0.448319, 
20851,  -0.232821,  -9.711632,  -0.275884,  -1.046424, -59.078272,  -1.294740,  -0.743018,   0.843377,   0.254233, -633.000000, -124.500000, -120.000000,   0.619145, -90.694752, -79.274704,   0.543643,  -0.545372,   0.456700,  -0.445347, 
20852,  -0.228551,  -9.776142,  -0.232224,  -1.194170, -59.246664,  -1.238439,  -0.741179,   0.833329,   0.261829, -631.500000, -127.500000, -117.000000,   0.633327, -90.713768, -78.681240,   0.545915,  -0.547772,   0.454017,  -0.442388, 
20853,  -0.329937,  -9.733659,  -0.294918,  -1.393099, -59.370156,  -1.120983,  -0.744965,   0.823192,   0.265535, -633.000000, -130.500000, -115.500000,   0.653374, -90.733816, -78.086480,   0.548177,  -0.550131,   0.451333,  -0.439366, 
20854,  -0.337110,  -9.733031,  -0.298512,  -1.325524, -59.458512,  -0.973859,  -0.748018,   0.824732,   0.280049, -634.500000, -129.000000, -111.000000,   0.682144, -90.764752, -77.490920,   0.550421,  -0.552513,   0.448727,  -0.436255, 
20855,  -0.425890,  -9.757472,  -0.308043,  -1.242844, -59.815548,  -1.170756,  -0.746551,   0.848087,   0.301664, -634.500000, -120.000000, -105.000000,   0.722318, -90.793328, -76.893312,   0.552699,  -0.554824,   0.446136,  -0.433067, 
20856,  -0.483057,  -9.801563,  -0.306728,  -1.268463, -59.825072,  -1.310455,  -0.750149,   0.841571,   0.310486, -636.000000, -121.500000, -102.000000,   0.766246, -90.829120, -76.293544,   0.554953,  -0.557159,   0.443571,  -0.429815, 
20857,  -0.480540,  -9.763785,  -0.289569,  -1.149321, -59.904520,  -1.136495,  -0.746113,   0.825910,   0.326255, -633.000000, -126.000000, -96.000000,   0.811587, -90.861808, -75.693392,   0.557211,  -0.559464,   0.440989,  -0.426555, 
20858,  -0.652536,  -9.811440,  -0.346359,  -1.541592, -59.536240,  -0.612096,  -0.742310,   0.838853,   0.332201, -631.500000, -121.500000, -94.500000,   0.869874, -90.901440, -75.095312,   0.559450,  -0.561728,   0.438488,  -0.423198, 
20859,  -0.731309,  -9.729356,  -0.462562,  -1.294461, -58.842432,  -0.510018,  -0.739771,   0.834869,   0.331300, -630.000000, -123.000000, -94.500000,   0.944219, -90.948664, -74.502456,   0.561687,  -0.563953,   0.436117,  -0.419756, 
20860,  -0.931097,  -9.622586,  -0.559585,  -1.426784, -58.417756,  -1.026107,  -0.731077,   0.836224,   0.330328, -625.500000, -123.000000, -94.500000,   0.988527, -90.975696, -73.914136,   0.563857,  -0.566144,   0.433523,  -0.416536, 
20861,  -0.872250,  -9.887951,  -0.351590,  -1.040884, -57.646012,  -1.277936,  -0.728692,   0.834232,   0.343616, -624.000000, -123.000000, -90.000000,   1.067177, -91.013184, -73.331936,   0.566075,  -0.568240,   0.431165,  -0.413135, 
20862,  -0.965724,  -9.677145,  -0.380471,  -1.462673, -56.825040,  -0.963393,  -0.732649,   0.823280,   0.351860, -625.500000, -126.000000, -87.000000,   1.110050, -91.041960, -72.758544,   0.568147,  -0.570374,   0.428627,  -0.409972, 
20863,  -1.066757,  -9.860853,  -0.517087,  -1.234355, -55.455944,  -1.023583,  -0.730093,   0.822103,   0.360611, -624.000000, -126.000000, -84.000000,   1.113332, -91.042936, -72.194880,   0.570162,  -0.572467,   0.425835,  -0.407151, 
20864,  -1.029838,  -9.726077,  -0.303670,  -1.170851, -54.228024,  -0.931444,  -0.724622,   0.824183,   0.378691, -621.000000, -124.500000, -78.000000,   1.115342, -91.044520, -71.644536,   0.572118,  -0.574514,   0.423102,  -0.404397, 
20865,  -0.959025,  -9.796489,  -0.408830,  -1.367774, -52.412308,  -0.823027,  -0.727520,   0.823732,   0.379015, -622.500000, -124.500000, -78.000000,   1.118294, -91.045296, -71.109544,   0.573998,  -0.576468,   0.420426,  -0.401698, 
20866,  -0.948014,  -9.739244,  -0.392184,  -1.020910, -50.322292,  -0.755965,  -0.734938,   0.801466,   0.372238, -625.500000, -132.000000, -79.500000,   1.121334, -91.046968, -70.593680,   0.575806,  -0.578356,   0.417850,  -0.399091, 
20867,  -1.026919,  -9.675158,  -0.362630,  -1.093332, -48.061732,  -0.577353,  -0.726569,   0.803998,   0.389993, -621.000000, -130.500000, -73.500000,   1.123706, -91.047872, -70.099448,   0.577528,  -0.580150,   0.415368,  -0.396590, 
20868,  -0.848897,  -9.728008,  -0.295241,  -1.019506, -45.829824,  -0.719648,  -0.716767,   0.824272,   0.410059, -616.500000, -123.000000, -67.500000,   1.166429, -91.061248, -69.628608,   0.579230,  -0.581764,   0.413236,  -0.393942, 
20869,  -1.056783,  -9.709702,  -0.152778,  -1.208232, -43.177728,  -0.570172,  -0.722905,   0.821740,   0.419782, -619.500000, -123.000000, -64.500000,   1.169448, -91.062096, -69.181296,   0.580774,  -0.583370,   0.410983,  -0.391663, 
20870,  -1.065074,  -9.838087,  -0.053189,  -0.686223, -40.731936,  -0.433939,  -0.716938,   0.823457,   0.414596, -616.500000, -123.000000, -66.000000,   1.212556, -91.054744, -68.759112,   0.582403,  -0.584696,   0.409025,  -0.389326, 
20871,  -1.010393,  -9.602137,   0.055378,  -1.089796, -38.161332,  -0.662505,  -0.723280,   0.814498,   0.409552, -619.500000, -126.000000, -67.500000,   1.214430, -91.055072, -68.363128,   0.583743,  -0.586094,   0.407008,  -0.387296, 
20872,  -1.156598,  -9.834697,  -0.087509,  -0.817473, -35.813776,  -0.713529,  -0.727578,   0.801917,   0.426871, -621.000000, -129.000000, -61.500000,   1.249989, -91.048472, -67.990728,   0.585156,  -0.587258,   0.405259,  -0.385236, 
20873,  -0.974329,  -9.710986,   0.039638,  -0.519613, -33.520572,  -0.947999,  -0.721579,   0.809248,   0.440991, -618.000000, -126.000000, -57.000000,   1.285809, -91.046936, -67.642160,   0.586462,  -0.588363,   0.403650,  -0.383277, 
20874,  -0.975167,  -9.709060,  -0.040628,  -1.065300, -31.356768,  -0.767617,  -0.716670,   0.800465,   0.443725, -615.000000, -129.000000, -55.500000,   1.368206, -91.035536, -67.316056,   0.587889,  -0.589168,   0.402354,  -0.381218, 
20875,  -0.823447,  -9.840196,  -0.080898,  -0.581887, -29.328624,  -0.560902,  -0.713944,   0.800102,   0.447938, -613.500000, -129.000000, -54.000000,   1.436579, -91.022656, -67.010408,   0.589196,  -0.589933,   0.401080,  -0.379332, 
20876,  -0.562273,  -9.683026,  -0.005074,  -0.808005, -27.868926,  -0.502647,  -0.708319,   0.800191,   0.451828, -610.500000, -129.000000, -52.500000,   1.495546, -91.009232, -66.722948,   0.590410,  -0.590663,   0.399851,  -0.377589, 
20877,  -0.524088,  -9.836541,  -0.086664,  -0.701486, -26.703590,  -0.259328,  -0.709036,   0.791319,   0.450673, -610.500000, -132.000000, -52.500000,   1.540349, -90.995472, -66.447984,   0.591537,  -0.591398,   0.398616,  -0.375984, 
20878,  -0.308250,  -9.757202,  -0.074641,  -0.428355, -25.920838,  -0.342012,  -0.708302,   0.802997,   0.461480, -610.500000, -127.500000, -49.500000,   1.566149, -90.980232, -66.182776,   0.592575,  -0.592157,   0.397330,  -0.374535, 
20879,  -0.430532,  -9.631620,  -0.042286,  -0.861241, -25.114166,  -0.317945,  -0.706885,   0.817932,   0.454138, -610.500000, -123.000000, -52.500000,   1.590045, -90.959056, -65.925020,   0.593602,  -0.592855,   0.396048,  -0.373146, 
20880,  -0.455617,  -9.890093,  -0.108289,  -0.239841, -24.212966,  -0.274781,  -0.703457,   0.823634,   0.449854, -609.000000, -121.500000, -54.000000,   1.608279, -90.941008, -65.676176,   0.594559,  -0.593553,   0.394791,  -0.371819, 
20881,  -0.458308,  -9.612672,  -0.002611,  -0.649035, -23.731110,  -0.360658,  -0.700918,   0.819650,   0.448952, -607.500000, -123.000000, -54.000000,   1.626029, -90.920024, -65.434564,   0.595506,  -0.594213,   0.393559,  -0.370542, 
20882,  -0.440170,  -9.820971,  -0.132913,  -0.547574, -23.234728,  -0.469661,  -0.707398,   0.815489,   0.467750, -610.500000, -123.000000, -48.000000,   1.634201, -90.911016, -65.197328,   0.596346,  -0.594952,   0.392341,  -0.369296, 
20883,  -0.387519,  -9.745814,  -0.024207,  -0.516981, -22.767934,  -0.597377,  -0.703549,   0.796207,   0.478405, -607.500000, -129.000000, -43.500000,   1.644463, -90.895056, -64.965456,   0.597212,  -0.595630,   0.391140,  -0.368091, 
20884,  -0.347520,  -9.789608,  -0.040726,  -0.621322, -22.025268,  -0.570827,  -0.699779,   0.803537,   0.465046, -606.000000, -127.500000, -48.000000,   1.653547, -90.887200, -64.740212,   0.598010,  -0.596332,   0.389993,  -0.366898, 
20885,  -0.285424,  -9.732450,  -0.087962,  -0.538964, -21.873500,  -0.427009,  -0.698516,   0.820465,   0.471893, -606.000000, -121.500000, -46.500000,   1.658383, -90.873336, -64.518540,   0.598803,  -0.596993,   0.388817,  -0.365760, 
20886,  -0.303717,  -9.813347,  -0.081137,  -0.593388, -21.738698,  -0.182498,  -0.691085,   0.804892,   0.464074, -601.500000, -127.500000, -48.000000,   1.663226, -90.859904, -64.298256,   0.599586,  -0.597648,   0.387648,  -0.364625, 
20887,  -0.178135,  -9.716022,  -0.117577,  -0.285270, -21.675938,  -0.335609,  -0.698674,   0.781811,   0.461834, -604.500000, -135.000000, -48.000000,   1.655173, -90.847456, -64.079340,   0.600319,  -0.598348,   0.386424,  -0.363562, 
20888,  -0.201837,  -9.712086,  -0.098604,  -0.754926, -21.614980,  -0.417059,  -0.696101,   0.783440,   0.480238, -603.000000, -133.500000, -42.000000,   1.650114, -90.842048, -63.861024,   0.601023,  -0.599071,   0.385240,  -0.362463, 
20889,  -0.245926,  -9.858068,  -0.132343,  -0.272719, -21.202236,  -0.474038,  -0.691736,   0.807247,   0.501529, -601.500000, -124.500000, -36.000000,   1.644071, -90.833736, -63.645108,   0.601731,  -0.599775,   0.384054,  -0.361391, 
20890,  -0.197049,  -9.693830,  -0.075539,  -0.550892, -20.938912,  -0.324473,  -0.701114,   0.802634,   0.520651, -606.000000, -124.500000, -30.000000,   1.633498, -90.827672, -63.432392,   0.602403,  -0.600494,   0.382870,  -0.360353, 
20891,  -0.172855,  -9.804639,  -0.211500,  -0.433899, -20.489338,  -0.300692,  -0.704746,   0.790505,   0.510167, -607.500000, -129.000000, -33.000000,   1.625487, -90.828392, -63.223596,   0.603033,  -0.601224,   0.381737,  -0.359297, 
20892,  -0.159234,  -9.751153,  -0.156739,  -0.296873, -20.441546,  -0.365056,  -0.695164,   0.801545,   0.505813, -603.000000, -126.000000, -34.500000,   1.613870, -90.822648, -63.017556,   0.603666,  -0.601912,   0.380575,  -0.358290, 
20893,  -0.099859,  -9.746227,  -0.145867,  -0.477700, -20.307984,  -0.421728,  -0.703858,   0.800191,   0.506785, -607.500000, -126.000000, -34.500000,   1.600181, -90.820912, -62.812740,   0.604268,  -0.602624,   0.379420,  -0.357288, 
20894,  -0.032198,  -9.738111,  -0.138078,  -0.340011, -20.449992,  -0.296058,  -0.704558,   0.794126,   0.515283, -607.500000, -127.500000, -31.500000,   1.576764, -90.810576, -62.607376,   0.604887,  -0.603324,   0.378186,  -0.356364, 
20895,  -0.073656,  -9.785301,  -0.093239,  -0.387332, -20.394036,  -0.197919,  -0.698762,   0.795029,   0.514634, -604.500000, -127.500000, -31.500000,   1.553881, -90.803616, -62.401132,   0.605494,  -0.604042,   0.376959,  -0.355421, 
20896,  -0.063813,  -9.815417,  -0.125973,  -0.348290, -20.414256,  -0.269405,  -0.695881,   0.792674,   0.504658, -603.000000, -129.000000, -34.500000,   1.527066, -90.795824, -62.195324,   0.606092,  -0.604767,   0.375712,  -0.354504, 
20897,  -0.156217,  -9.668907,  -0.079611,  -0.460605, -20.134404,  -0.488079,  -0.698404,   0.799465,   0.515212, -604.500000, -126.000000, -31.500000,   1.511076, -90.784560, -61.990996,   0.606737,  -0.605433,   0.374518,  -0.353548, 
20898,  -0.243203,  -9.910298,  -0.192293,  -0.303782, -20.281702,  -0.423213,  -0.702173,   0.792134,   0.528571, -606.000000, -127.500000, -27.000000,   1.499867, -90.783984, -61.787460,   0.607333,  -0.606132,   0.373383,  -0.352533, 
20899,  -0.093329,  -9.672294,  -0.090161,  -0.458387, -20.679938,  -0.474539,  -0.694196,   0.784618,   0.526444, -601.500000, -130.500000, -27.000000,   1.478790, -90.775824, -61.581140,   0.607940,  -0.606823,   0.372153,  -0.351576, 
20900,  -0.070884,  -9.712486,  -0.169038,  -0.655471, -21.098946,  -0.354578,  -0.683726,   0.805343,   0.518707, -597.000000, -124.500000, -30.000000,   1.459814, -90.778368, -61.369976,   0.608512,  -0.607579,   0.370941,  -0.350548, 
20901,  -0.003818,  -9.829586,  -0.157798,  -0.223960, -21.652392,  -0.342251,  -0.695660,   0.801908,   0.529078, -603.000000, -124.500000, -27.000000,   1.432540, -90.770112, -60.983648,   0.609651,  -0.608870,   0.368723,  -0.348668, 
20902,   0.013197,  -9.720079,  -0.082252,  -0.606112, -22.175082,  -0.286124,  -0.693463,   0.796295,   0.537251, -601.500000, -126.000000, -24.000000,   1.408923, -90.762880, -60.589736,   0.610820,  -0.610177,   0.366487,  -0.346725, 
20903,  -0.006778,  -9.852762,  -0.117442,  -0.539198, -22.655914,  -0.348081,  -0.687854,   0.793577,   0.531489, -598.500000, -127.500000, -25.500000,   1.383747, -90.755048, -60.201496,   0.611952,  -0.611449,   0.364259,  -0.344813, 
20904,  -0.010241,  -9.770134,  -0.126133,  -0.436611, -23.278752,  -0.329974,  -0.691640,   0.783440,   0.535195, -600.000000, -130.500000, -24.000000,   1.357451, -90.751792, -59.815356,   0.613043,  -0.612732,   0.362045,  -0.342899, 
20905,  -0.030308,  -9.739849,  -0.161082,  -0.591825, -24.221604,  -0.383247,  -0.689084,   0.782263,   0.543946, -598.500000, -130.500000, -21.000000,   1.331833, -90.753304, -59.418880,   0.614142,  -0.614071,   0.359793,  -0.340911, 
20906,   0.015376,  -9.765329,  -0.222726,  -0.481642, -25.235912,  -0.373945,  -0.677509,   0.781262,   0.532997, -592.500000, -132.000000, -24.000000,   1.301447, -90.753144, -59.025344,   0.615226,  -0.615402,   0.357524,  -0.338969, 
20907,  -0.098339,  -9.760344,  -0.114390,  -0.611869, -26.258930,  -0.437070,  -0.674782,   0.780899,   0.537211, -591.000000, -132.000000, -22.500000,   1.277824, -90.748088, -58.622124,   0.616362,  -0.616692,   0.355211,  -0.336942, 
20908,  -0.110018,  -9.766062,  -0.191202,  -0.613556, -27.318086,  -0.551639,  -0.686870,   0.779456,   0.561772, -597.000000, -130.500000, -15.000000,   1.257256, -90.749752, -58.199180,   0.617530,  -0.618069,   0.352827,  -0.334771, 
20909,  -0.062364,  -9.752816,  -0.109395,  -0.787212, -28.376154,  -0.528836,  -0.686137,   0.791134,   0.572580, -597.000000, -126.000000, -12.000000,   1.232678, -90.745472, -57.757208,   0.618775,  -0.619483,   0.350301,  -0.332538, 
20910,  -0.065585,  -9.804787,  -0.119487,  -0.601328, -29.569096,  -0.626309,  -0.682367,   0.798464,   0.559221, -595.500000, -124.500000, -16.500000,   1.211615, -90.742520, -57.329412,   0.619961,  -0.620828,   0.347861,  -0.330347, 
20911,  -0.091885,  -9.729177,  -0.045861,  -0.862066, -30.742396,  -0.562998,  -0.680170,   0.792851,   0.567394, -594.000000, -126.000000, -13.500000,   1.191366, -90.735640, -56.886436,   0.621208,  -0.622188,   0.345329,  -0.328078, 
20912,  -0.047065,  -9.838496,  -0.145930,  -0.685994, -32.050698,  -0.610411,  -0.679982,   0.796472,   0.572509, -594.000000, -124.500000, -12.000000,   1.171439, -90.735184, -56.437156,   0.622440,  -0.623599,   0.342781,  -0.325754, 
20913,  -0.073557,  -9.747381,  -0.147245,  -0.750225, -33.331376,  -0.581654,  -0.681667,   0.804529,   0.550723, -595.500000, -123.000000, -19.500000,   1.163944, -90.738200, -56.017356,   0.623591,  -0.624888,   0.340462,  -0.323503, 
20914,  -0.118660,  -9.847503,  -0.229683,  -0.813533, -34.504896,  -0.472657,  -0.677117,   0.791311,   0.552880, -592.500000, -127.500000, -18.000000,   1.162313, -90.747936, -55.592608,   0.624722,  -0.626198,   0.338159,  -0.321167, 
20915,  -0.164721,  -9.736175,  -0.254737,  -0.713077, -35.634836,  -0.465517,  -0.668173,   0.766867,   0.571384, -586.500000, -135.000000, -10.500000,   1.167311, -90.761280, -55.138092,   0.625936,  -0.627597,   0.335739,  -0.318622, 
20916,  -0.170488,  -9.797634,  -0.241838,  -0.922027, -36.763240,  -0.296402,  -0.673936,   0.771577,   0.591337, -589.500000, -132.000000,  -4.500000,   1.173453, -90.778632, -54.665376,   0.627170,  -0.629057,   0.333230,  -0.315954, 
