Standard output of YIS Manager:
  TID,     AccX,     AccY,     AccZ,    AngVX,    AngVY,    AngVZ,     MagX,     MagY,     MagZ, NormMagX, NormMagY, NormMagZ,    Pitch,     Roll,      Yaw,       q0,       q1,       q2,       q3, 
21788,  -0.127411,  -9.781328,  -0.206096,   0.026458,   0.152402,  -0.108746,  -0.061795,   1.056356,  -0.820717, -297.000000, -147.000000, -448.500000,   0.806019, -91.027224, -176.618688,   0.025688,  -0.016120,   0.713197,  -0.700233, 
21789,  -0.172350,  -9.772683,  -0.167409,  -0.069816,   0.180856,   0.000935,  -0.043877,   1.064315,  -0.826621, -288.000000, -145.500000, -450.000000,   0.810747, -91.031168, -176.603920,   0.025807,  -0.016183,   0.713220,  -0.700204, 
21790,  -0.093259,  -9.762011,  -0.181632,   0.078565,   0.214648,  -0.089660,  -0.043690,   1.067936,  -0.821506, -288.000000, -144.000000, -448.500000,   0.806359, -91.024520, -176.592784,   0.025848,  -0.016278,   0.713177,  -0.700244, 
21791,  -0.194507,  -9.738433,  -0.176469,  -0.222865,   0.133516,  -0.048007,  -0.053647,   1.049654,  -0.827382, -292.500000, -150.000000, -450.000000,   0.809927, -91.031608, -176.564928,   0.026040,  -0.016431,   0.713216,  -0.700192, 
21792,  -0.146193,  -9.784877,  -0.163747,   0.052745,   0.205721,  -0.107509,  -0.054005,   1.045218,  -0.827959, -292.500000, -151.500000, -450.000000,   0.810753, -91.026808, -176.538288,   0.026209,  -0.016591,   0.713183,  -0.700216, 
21793,  -0.122626,  -9.760751,  -0.194833,  -0.168694,   0.212592,  -0.022797,  -0.050920,   1.049291,  -0.823168, -291.000000, -150.000000, -448.500000,   0.808340, -91.034544, -176.518400,   0.026314,  -0.016731,   0.713227,  -0.700164, 
21794,  -0.104770,  -9.766735,  -0.158704,   0.060179,   0.099257,  -0.048398,  -0.053101,   1.057711,  -0.821689, -292.500000, -147.000000, -448.500000,   0.807552, -91.027832, -176.493344,   0.026463,  -0.016891,   0.713182,  -0.700200, 
21795,  -0.138224,  -9.715975,  -0.229542,  -0.184491,   0.165377,   0.014869,  -0.052742,   1.062146,  -0.821112, -292.500000, -145.500000, -448.500000,   0.805395, -91.033464, -176.471136,   0.026584,  -0.017043,   0.713214,  -0.700160, 
21796,  -0.139170,  -9.795000,  -0.137144,   0.053009,   0.241572,  -0.054651,  -0.046400,   1.071106,  -0.816067, -289.500000, -142.500000, -447.000000,   0.808252, -91.028408, -176.455536,   0.026698,  -0.017122,   0.713181,  -0.700187, 
21797,  -0.163162,  -9.762181,  -0.185169,  -0.100141,   0.196583,  -0.030062,  -0.046759,   1.066670,  -0.816645, -289.500000, -144.000000, -447.000000,   0.808751, -91.030016, -176.441104,   0.026789,  -0.017209,   0.713188,  -0.700174, 
21798,  -0.123959,  -9.756048,  -0.143496,  -0.032906,   0.223574,  -0.134244,  -0.062120,   1.057534,  -0.801990, -297.000000, -145.500000, -442.500000,   0.809414, -91.025856, -176.402704,   0.027029,  -0.017443,   0.713157,  -0.700191, 
21799,  -0.144552,  -9.785332,  -0.204456,  -0.108111,   0.165048,  -0.015238,  -0.060328,   1.079711,  -0.799102, -297.000000, -138.000000, -442.500000,   0.809459, -91.027792, -176.367168,   0.027246,  -0.017664,   0.713164,  -0.700170, 
21800,  -0.154654,  -9.786052,  -0.149057,   0.026941,   0.205912,  -0.081681,  -0.053815,   1.089485,  -0.798595, -294.000000, -135.000000, -442.500000,   0.812465, -91.023136, -176.340880,   0.027426,  -0.017808,   0.713132,  -0.700192, 
21801,  -0.134542,  -9.731154,  -0.160673,  -0.119827,   0.126174,  -0.084715,  -0.057788,   1.075727,  -0.800004, -295.500000, -139.500000, -442.500000,   0.810276, -91.024080, -176.311184,   0.027594,  -0.018007,   0.713133,  -0.700180, 
21802,  -0.136123,  -9.789094,  -0.141838,   0.035745,   0.214390,  -0.159760,  -0.066311,   1.075187,  -0.803569, -300.000000, -139.500000, -444.000000,   0.811017, -91.020936, -176.268736,   0.027858,  -0.018266,   0.713107,  -0.700190, 
21803,  -0.138159,  -9.770655,  -0.202628,  -0.085466,   0.116890,  -0.145421,  -0.070268,   1.064236,  -0.795325, -301.500000, -142.500000, -441.000000,   0.808802, -91.021432, -176.221840,   0.028131,  -0.018571,   0.713103,  -0.700176, 
21804,  -0.133982,  -9.751222,  -0.175436,  -0.187995,   0.188868,  -0.032134,  -0.059035,   1.061606,  -0.797199, -295.500000, -144.000000, -441.000000,   0.809305, -91.022424, -176.191856,   0.028317,  -0.018755,   0.713105,  -0.700163, 
21805,  -0.123853,  -9.762490,  -0.175368,  -0.033999,   0.126114,  -0.057662,  -0.054189,   1.082243,  -0.808825, -294.000000, -138.000000, -445.500000,   0.808489, -91.021728, -176.171680,   0.028435,  -0.018885,   0.713098,  -0.700163, 
21806,  -0.154004,  -9.794288,  -0.170303,  -0.085055,   0.170622,  -0.074839,  -0.057120,   1.076179,  -0.827806, -295.500000, -141.000000, -451.500000,   0.810634, -91.023984, -176.148032,   0.028593,  -0.019020,   0.713108,  -0.700143, 
21807,  -0.167165,  -9.784790,  -0.164493,  -0.161960,   0.197130,  -0.144839,  -0.054923,   1.070566,  -0.819633, -294.000000, -142.500000, -448.500000,   0.812720, -91.023736, -176.127456,   0.028732,  -0.019135,   0.713104,  -0.700139, 
21808,  -0.134116,  -9.733587,  -0.124081,  -0.025079,   0.143400,  -0.152988,  -0.055265,   1.068937,  -0.810558, -294.000000, -142.500000, -445.500000,   0.814514, -91.021224, -176.106064,   0.028874,  -0.019257,   0.713086,  -0.700149, 
21809,  -0.133532,  -9.846216,  -0.253399,   0.001063,   0.197162,  -0.064716,  -0.051261,   1.047662,  -0.814093, -291.000000, -150.000000, -445.500000,   0.814364, -91.025728, -176.092720,   0.028954,  -0.019342,   0.713112,  -0.700118, 
21810,  -0.120402,  -9.713625,  -0.084424,  -0.161374,   0.268654,  -0.073938,  -0.055218,   1.036711,  -0.805849, -292.500000, -153.000000, -442.500000,   0.816719, -91.021088, -176.072064,   0.029096,  -0.019455,   0.713080,  -0.700142, 
21811,  -0.164743,  -9.783021,  -0.168015,  -0.075680,   0.241507,  -0.125694,  -0.055949,   1.065679,  -0.792408, -294.000000, -142.500000, -439.500000,   0.817171, -91.021256, -176.052656,   0.029217,  -0.019573,   0.713079,  -0.700136, 
21812,  -0.172137,  -9.746264,  -0.215258,   0.061781,   0.231815,  -0.220084,  -0.061574,   1.065590,  -0.796297, -297.000000, -142.500000, -441.000000,   0.817952, -91.021040, -176.026592,   0.029381,  -0.019730,   0.713074,  -0.700131, 
21813,  -0.087991,  -9.842865,  -0.248336,  -0.178678,   0.259929,  -0.048175,  -0.061044,   1.070840,  -0.800257, -297.000000, -141.000000, -442.500000,   0.814457, -91.028808, -175.999728,   0.029522,  -0.019921,   0.713117,  -0.700078, 
21814,  -0.141238,  -9.654263,  -0.183096,   0.036227,   0.267901,  -0.132695,  -0.052913,   1.061332,  -0.816574, -292.500000, -145.500000, -447.000000,   0.817095, -91.025480, -175.978432,   0.029669,  -0.020036,   0.713093,  -0.700093, 
21815,  -0.119844,  -9.778505,  -0.151743,  -0.255729,   0.277718,  -0.083519,  -0.046792,   1.061057,  -0.835950, -289.500000, -147.000000, -453.000000,   0.814735, -91.027480, -175.972336,   0.029691,  -0.020089,   0.713104,  -0.700080, 
21816,  -0.191424,  -9.865595,  -0.194237,   0.036111,   0.259093,  -0.115447,  -0.046075,   1.069928,  -0.834795, -289.500000, -144.000000, -453.000000,   0.814192, -91.026984, -175.971280,   0.029694,  -0.020099,   0.713101,  -0.700083, 
21817,  -0.125578,  -9.729432,  -0.152932,  -0.153470,   0.215745,   0.020940,  -0.042631,   1.078436,  -0.829426, -288.000000, -141.000000, -451.500000,   0.811035, -91.029744, -175.974400,   0.029655,  -0.020100,   0.713118,  -0.700067, 
21818,  -0.124368,  -9.777192,  -0.211972,  -0.033606,   0.161566,  -0.083136,  -0.049486,   1.067033,  -0.820858, -291.000000, -144.000000, -448.500000,   0.810430, -91.028864, -175.972528,   0.029663,  -0.020115,   0.713112,  -0.700072, 
21819,  -0.149359,  -9.793191,  -0.134858,  -0.066886,   0.277515,  -0.037928,  -0.050015,   1.061783,  -0.816898, -291.000000, -145.500000, -447.000000,   0.814769, -91.029800, -175.962944,   0.029749,  -0.020148,   0.713117,  -0.700063, 
21820,  -0.138935,  -9.801386,  -0.198524,   0.027307,   0.250615,  -0.037368,  -0.042973,   1.076807,  -0.820351, -288.000000, -141.000000, -448.500000,   0.811592, -91.025576, -175.961504,   0.029738,  -0.020175,   0.713091,  -0.700090, 
21821,  -0.172400,  -9.735172,  -0.142072,  -0.137087,   0.126478,  -0.032681,  -0.048973,   1.069477,  -0.834471, -291.000000, -144.000000, -453.000000,   0.815507, -91.024976, -175.958560,   0.029781,  -0.020170,   0.713087,  -0.700092, 
21822,  -0.161789,  -9.804278,  -0.183352,  -0.084659,   0.215236,  -0.047933,  -0.052604,   1.057348,  -0.844954, -292.500000, -148.500000, -456.000000,   0.817295, -91.023368, -175.950848,   0.029839,  -0.020206,   0.713077,  -0.700099, 
21823,  -0.128079,  -9.747156,  -0.150012,  -0.153341,   0.215346,  -0.057391,  -0.051512,   1.073461,  -0.833569, -292.500000, -142.500000, -453.000000,   0.815543, -91.025256, -175.943040,   0.029876,  -0.020266,   0.713087,  -0.700086, 
21824,  -0.108845,  -9.776100,  -0.197102,   0.018368,   0.205887,  -0.090479,  -0.057667,   1.068122,  -0.833498, -295.500000, -144.000000, -453.000000,   0.814875, -91.025280, -175.930000,   0.029951,  -0.020351,   0.713085,  -0.700083, 
21825,  -0.143070,  -9.748868,  -0.150125,  -0.084588,   0.215015,  -0.091451,  -0.050032,   1.058977,  -0.826551, -291.000000, -147.000000, -450.000000,   0.814668, -91.023392, -175.917744,   0.030025,  -0.020428,   0.713071,  -0.700092, 
21826,  -0.137135,  -9.798445,  -0.195557,  -0.031692,   0.357327,  -0.070934,  -0.049640,   1.069025,  -0.806668, -291.000000, -142.500000, -444.000000,   0.813520, -91.024248, -175.911936,   0.030054,  -0.020472,   0.713075,  -0.700086, 
21827,  -0.084953,  -9.737906,  -0.133750,  -0.184593,   0.526703,  -0.069609,  -0.061574,   1.065590,  -0.796297, -297.000000, -142.500000, -441.000000,   0.806080, -91.023984, -175.899728,   0.030082,  -0.020593,   0.713071,  -0.700087, 
21828,   0.022481,  -9.791929,  -0.234494,  -0.077634,   0.917728,  -0.096295,  -0.061745,   1.064776,  -0.791759, -297.000000, -142.500000, -439.500000,   0.786934, -91.028224, -175.886640,   0.030042,  -0.020793,   0.713091,  -0.700062, 
21829,   0.081903,  -9.773850,  -0.234039,  -0.069142,   1.799032,   0.032593,  -0.055607,   1.067308,  -0.801483, -294.000000, -142.500000, -442.500000,   0.758512, -91.034696, -175.889072,   0.029849,  -0.020953,   0.713126,  -0.700030, 
21830,   0.197676,  -9.759364,  -0.226543,   0.012610,   3.114243,  -0.000191,  -0.053068,   1.063324,  -0.802384, -292.500000, -144.000000, -442.500000,   0.714467, -91.040264, -175.916048,   0.029409,  -0.021056,   0.713157,  -0.700013, 
21831,   0.181341,  -9.781938,  -0.233303,   0.035997,   4.609583,  -0.012046,  -0.055778,   1.066493,  -0.796945, -294.000000, -142.500000, -441.000000,   0.667342, -91.048752, -175.959168,   0.028851,  -0.021077,   0.713207,  -0.699982, 
21832,   0.171631,  -9.771813,  -0.254549,   0.089920,   6.276184,  -0.152032,  -0.058863,   1.062421,  -0.801736, -295.500000, -144.000000, -442.500000,   0.621800, -91.056624, -176.013088,   0.028237,  -0.021022,   0.713255,  -0.699957, 
21833,   0.136934,  -9.774118,  -0.210613,  -0.062699,   7.651987,  -0.037406,  -0.058709,   1.060429,  -0.815926, -295.500000, -145.500000, -447.000000,   0.581326, -91.062616, -176.078560,   0.027584,  -0.020863,   0.713295,  -0.699945, 
21834,   0.090582,  -9.785145,  -0.252540,   0.161197,   8.870067,  -0.058747,  -0.054736,   1.074187,  -0.814518, -294.000000, -141.000000, -447.000000,   0.551616, -91.070968, -176.155952,   0.026925,  -0.020565,   0.713354,  -0.699917, 
21835,   0.071886,  -9.734232,  -0.226415,   0.054915,  10.009501,   0.049289,  -0.051854,   1.071832,  -0.824494, -292.500000, -142.500000, -450.000000,   0.526182, -91.076528, -176.247024,   0.026209,  -0.020155,   0.713399,  -0.699909, 
21836,   0.016505,  -9.796913,  -0.259395,   0.173004,  10.839001,  -0.046843,  -0.046963,   1.060243,  -0.831412, -289.500000, -147.000000, -451.500000,   0.505953, -91.084512, -176.351104,   0.025446,  -0.019632,   0.713462,  -0.699886, 
21837,   0.001828,  -9.718594,  -0.221615,   0.235581,  11.760940,  -0.065553,  -0.046229,   1.071920,  -0.820605, -289.500000, -142.500000, -448.500000,   0.487791, -91.087784, -176.464768,   0.024638,  -0.019036,   0.713498,  -0.699895, 
21838,   0.024847,  -9.792307,  -0.212641,   0.129212,  12.586596,  -0.047221,  -0.053473,   1.091114,  -0.807670, -294.000000, -135.000000, -445.500000,   0.468234, -91.092208, -176.579408,   0.023816,  -0.018443,   0.713541,  -0.699896, 
21839,   0.051291,  -9.790257,  -0.242541,   0.278494,  13.504634,  -0.016694,  -0.060686,   1.075276,  -0.799680, -297.000000, -139.500000, -442.500000,   0.446342, -91.097408, -176.690544,   0.023000,  -0.017885,   0.713588,  -0.699892, 
21840,   0.051252,  -9.734108,  -0.212929,   0.140241,  14.484596,   0.009829,  -0.058130,   1.074098,  -0.790928, -295.500000, -139.500000, -439.500000,   0.424042, -91.102536, -176.805232,   0.022160,  -0.017308,   0.713636,  -0.699889, 
21841,   0.045998,  -9.804343,  -0.282131,   0.417457,  15.408202,   0.027359,  -0.051788,   1.083058,  -0.785884, -292.500000, -136.500000, -438.000000,   0.403700, -91.110080, -176.932416,   0.021255,  -0.016642,   0.713701,  -0.699873, 
21842,   0.090609,  -9.739536,  -0.204771,   0.250770,  16.405977,   0.045183,  -0.050136,   1.069388,  -0.783403, -291.000000, -141.000000, -436.500000,   0.383156, -91.112232, -177.073008,   0.020269,  -0.015892,   0.713735,  -0.699894, 
21843,   0.009921,  -9.803659,  -0.254071,   0.332664,  17.286294,   0.207742,  -0.049982,   1.067396,  -0.797593, -291.000000, -142.500000, -441.000000,   0.363481, -91.115528, -177.222064,   0.019235,  -0.015085,   0.713776,  -0.699905, 
21844,  -0.021415,  -9.694896,  -0.238100,   0.384300,  18.326994,   0.018897,  -0.038252,   1.064404,  -0.822732, -285.000000, -145.500000, -448.500000,   0.352686, -91.117392, -177.383728,   0.018180,  -0.014144,   0.713802,  -0.699917, 
21845,  -0.038117,  -9.789354,  -0.215469,   0.154556,  19.206908,  -0.038590,  -0.035729,   1.057613,  -0.833286, -283.500000, -148.500000, -451.500000,   0.336983, -91.121016, -177.565952,   0.016969,  -0.013105,   0.713840,  -0.699921, 
21846,  -0.024383,  -9.757908,  -0.242886,   0.516946,  20.152956,  -0.040031,  -0.042038,   1.054267,  -0.819025, -286.500000, -148.500000, -447.000000,   0.322335, -91.120920, -177.749984,   0.015754,  -0.012048,   0.713856,  -0.699948, 
21847,  -0.030826,  -9.748656,  -0.190010,   0.153471,  20.862310,   0.121352,  -0.044561,   1.061057,  -0.808471, -288.000000, -145.500000, -444.000000,   0.318019, -91.122224, -177.927024,   0.014645,  -0.010972,   0.713881,  -0.699964, 
21848,  -0.027853,  -9.814090,  -0.246622,   0.600243,  21.664048,   0.157924,  -0.038219,   1.070017,  -0.803427, -285.000000, -142.500000, -442.500000,   0.313262, -91.119240, -178.110016,   0.013498,  -0.009861,   0.713881,  -0.700007, 
21849,  -0.043810,  -9.698399,  -0.176499,   0.263896,  22.481170,   0.142627,  -0.032219,   1.077347,  -0.789307, -282.000000, -139.500000, -438.000000,   0.309927, -91.119056, -178.305616,   0.012282,  -0.008662,   0.713899,  -0.700033, 
21850,  -0.133116,  -9.873026,  -0.243250,   0.272431,  23.221666,  -0.011411,  -0.032594,   1.070105,  -0.799537, -282.000000, -142.500000, -441.000000,   0.309185, -91.120304, -178.507568,   0.011044,  -0.007409,   0.713926,  -0.700052, 
21851,  -0.068694,  -9.609142,  -0.136492,   0.270047,  23.957388,   0.055784,  -0.041492,   1.062323,  -0.813333, -286.500000, -145.500000, -445.500000,   0.307054, -91.115800, -178.706256,   0.009817,  -0.006184,   0.713909,  -0.700097, 
21852,  -0.154852,  -9.898576,  -0.297463,   0.382402,  24.329048,   0.110041,  -0.035338,   1.067662,  -0.813403, -283.500000, -144.000000, -445.500000,   0.320192, -91.116352, -178.897952,   0.008728,  -0.004909,   0.713917,  -0.700103, 
21853,  -0.175470,  -9.665359,  -0.179818,   0.535057,  24.749816,   0.316465,  -0.026814,   1.068202,  -0.809837, -279.000000, -144.000000, -444.000000,   0.331826, -91.112232, -179.107328,   0.007521,  -0.003533,   0.713896,  -0.700139, 
21854,  -0.252963,  -9.792347,  -0.150712,   0.230199,  25.135564,   0.037598,  -0.020848,   1.069919,  -0.815023, -276.000000, -144.000000, -445.500000,   0.362175, -91.108248, -179.316224,   0.006434,  -0.002046,   0.713876,  -0.700173, 
21855,  -0.361558,  -9.790919,  -0.258012,   0.652484,  25.309184,   0.162341,  -0.021035,   1.066298,  -0.820138, -276.000000, -145.500000, -447.000000,   0.392452, -91.105512, -179.522896,   0.005360,  -0.000574,   0.713863,  -0.700200, 
21856,  -0.317428,  -9.723429,  -0.067735,   0.233120,  25.428034,   0.019618,  -0.018992,   1.062677,  -0.797774, -274.500000, -145.500000, -439.500000,   0.429685, -91.097704, -179.724992,   0.004357,   0.000912,   0.713817,  -0.700259, 
21857,  -0.368815,  -9.821578,  -0.279333,   0.534154,  25.523632,   0.295391,  -0.010811,   1.061588,  -0.785134, -270.000000, -145.500000, -435.000000,   0.470045, -91.098256, -179.934240,   0.003329,   0.002462,   0.713823,  -0.700266, 
21858,  -0.316923,  -9.723424,  -0.107141,   0.579494,  25.736112,   0.116904,  -0.012104,   1.079693,  -0.787038, -271.500000, -139.500000, -436.500000,   0.514986, -91.087528, 179.864208,  -0.002377,  -0.003993,  -0.713747,   0.700334, 
21859,  -0.444551,  -9.831980,  -0.240363,   0.426864,  25.977990,   0.380609,  -0.010078,   1.073266,  -0.774327, -270.000000, -141.000000, -432.000000,   0.559631, -91.088520, 179.662656,  -0.001424,  -0.005521,  -0.713737,   0.700325, 
21860,  -0.324862,  -9.699279,  -0.044627,   0.348771,  25.861492,   0.177511,  -0.009907,   1.074080,  -0.778864, -270.000000, -141.000000, -433.500000,   0.595358, -91.075376, 179.462032,  -0.000419,  -0.006989,  -0.713641,   0.700405, 
21861,  -0.272951,  -9.773036,  -0.216618,   0.185125,  25.835880,   0.314500,  -0.006496,   1.076975,  -0.792801, -268.500000, -141.000000, -438.000000,   0.615962, -91.078288, 179.255504,   0.000714,  -0.008401,  -0.713643,   0.700386, 
21862,  -0.194719,  -9.807922,  -0.057895,   0.348931,  25.870168,   0.134152,   0.000204,   1.090370,  -0.787179, -265.500000, -136.500000, -436.500000,   0.638818, -91.066920, 179.045488,   0.001856,  -0.009848,  -0.713556,   0.700456, 
21863,  -0.220158,  -9.833032,  -0.163151,   0.279933,  25.871252,   0.316173,  -0.003223,   1.084669,  -0.782895, -267.000000, -138.000000, -435.000000,   0.662469, -91.065800, 178.845616,   0.002931,  -0.011238,  -0.713532,   0.700463, 
21864,  -0.305164,  -9.712364,  -0.042128,   0.366082,  25.906866,   0.361269,  -0.012275,   1.078879,  -0.782500, -271.500000, -139.500000, -435.000000,   0.689286, -91.054992, 178.664944,   0.003869,  -0.012526,  -0.713450,   0.700531, 
21865,  -0.264475,  -9.780364,  -0.107969,   0.468990,  25.861224,   0.178830,  -0.008147,   1.090645,  -0.795282, -270.000000, -136.500000, -439.500000,   0.700117, -91.046392, 178.476112,   0.004957,  -0.013768,  -0.713372,   0.700576, 
21866,  -0.252902,  -9.739647,  -0.102544,   0.328920,  25.567292,   0.041521,   0.005438,   1.080410,  -0.803172, -262.500000, -141.000000, -441.000000,   0.715944, -91.040744, 178.274864,   0.006090,  -0.015117,  -0.713305,   0.700597, 
21867,  -0.200671,  -9.796424,  -0.190718,   0.551220,  25.478092,   0.094603,   0.010908,   1.082491,  -0.785092, -259.500000, -139.500000, -435.000000,   0.730294, -91.034440, 178.071504,   0.007245,  -0.016470,  -0.713234,   0.700622, 
21868,  -0.291408,  -9.727172,  -0.053249,   0.300758,  25.382256,   0.377338,   0.014335,   1.088192,  -0.789376, -258.000000, -138.000000, -436.500000,   0.759700, -91.025160, 177.875680,   0.008260,  -0.017868,  -0.713142,   0.700667, 
21869,  -0.349035,  -9.837831,  -0.162344,   0.594993,  25.594578,   0.279916,   0.013602,   1.076515,  -0.800184, -258.000000, -142.500000, -439.500000,   0.791368, -91.015752, 177.686304,   0.009222,  -0.019239,  -0.713050,   0.700715, 
21870,  -0.339903,  -9.714574,  -0.049470,   0.320514,  25.621754,   0.251266,   0.018681,   1.068547,  -0.801986, -255.000000, -145.500000, -439.500000,   0.821787, -91.005632, 177.492912,   0.010218,  -0.020628,  -0.712952,   0.700767, 
21871,  -0.367959,  -9.857360,  -0.106433,   0.315972,  26.021790,   0.197403,   0.018868,   1.072168,  -0.796872, -255.000000, -144.000000, -438.000000,   0.850520, -90.997024, 177.299952,   0.011220,  -0.022003,  -0.712864,   0.700811, 
21872,  -0.278808,  -9.730165,  -0.060239,   0.294594,  26.466658,   0.205072,   0.013414,   1.072894,  -0.805299, -258.000000, -144.000000, -441.000000,   0.871726, -90.983944, 177.113408,   0.012232,  -0.023292,  -0.712744,   0.700877, 
21873,  -0.294921,  -9.766628,  -0.118810,   0.523017,  27.009406,   0.330369,   0.016312,   1.073345,  -0.805623, -256.500000, -144.000000, -441.000000,   0.890727, -90.972736, 176.921344,   0.013291,  -0.024601,  -0.712626,   0.700922, 
21874,  -0.312633,  -9.753137,  -0.026867,   0.475672,  27.427466,   0.302463,   0.024135,   1.067821,  -0.793560, -252.000000, -145.500000, -436.500000,   0.915422, -90.955952, 176.719248,   0.014377,  -0.026007,  -0.712469,   0.701001, 
21875,  -0.309883,  -9.842876,  -0.076482,   0.444039,  27.685006,   0.202255,   0.030273,   1.070353,  -0.803283, -249.000000, -145.500000, -439.500000,   0.935635, -90.944608, 176.508448,   0.015544,  -0.027439,  -0.712345,   0.701045, 
21876,  -0.282778,  -9.731233,  -0.112794,   0.643018,  27.845002,   0.268210,   0.033342,   1.071619,  -0.808144, -247.500000, -145.500000, -441.000000,   0.952405, -90.935912, 176.295280,   0.016746,  -0.028866,  -0.712236,   0.701073, 
21877,  -0.267434,  -9.769133,  -0.103263,   0.455580,  28.005868,   0.329924,   0.030444,   1.071167,  -0.807820, -249.000000, -145.500000, -441.000000,   0.969695, -90.929656, 176.089632,   0.017898,  -0.030249,  -0.712144,   0.701087, 
21878,  -0.224027,  -9.750920,  -0.140697,   0.642421,  27.801010,   0.363155,   0.032829,   1.069175,  -0.794532, -247.500000, -145.500000, -436.500000,   0.969386, -90.924312, 175.876896,   0.019203,  -0.031568,  -0.712060,   0.701091, 
21879,  -0.193689,  -9.694534,  -0.022400,   0.307614,  27.801492,   0.307257,   0.037053,   1.057135,  -0.773647, -244.500000, -148.500000, -429.000000,   0.975912, -90.914704, 175.662032,   0.020480,  -0.032941,  -0.711938,   0.701114, 
21880,  -0.123880,  -9.833258,  -0.252728,   0.626314,  27.907760,   0.356171,   0.023810,   1.068998,  -0.774832, -252.000000, -144.000000, -430.500000,   0.969914, -90.916344, 175.467376,   0.021707,  -0.034114,  -0.711887,   0.701062, 
21881,  -0.153166,  -9.713074,   0.007987,   0.462574,  27.836600,   0.283479,   0.024714,   1.081490,  -0.768562, -252.000000, -139.500000, -429.000000,   0.965841, -90.907200, 175.274368,   0.022916,  -0.035286,  -0.711771,   0.701077, 
21882,  -0.017720,  -9.805348,  -0.238934,   0.512575,  27.676174,   0.246368,   0.038316,   1.074062,  -0.766800, -244.500000, -142.500000, -427.500000,   0.945609, -90.906808, 175.059712,   0.024355,  -0.036496,  -0.711706,   0.701029, 
21883,  -0.015994,  -9.688048,  -0.084218,   0.578672,  27.418208,   0.277324,   0.049720,   1.072247,  -0.773211, -238.500000, -144.000000, -429.000000,   0.928868, -90.900176, 174.835968,   0.025830,  -0.037781,  -0.711600,   0.701019, 
21884,   0.002085,  -9.867584,  -0.182173,   0.482621,  27.249172,   0.229748,   0.041385,   1.075328,  -0.771661, -243.000000, -142.500000, -429.000000,   0.904642, -90.895544, 174.628336,   0.027252,  -0.038922,  -0.711514,   0.700998, 
21885,  -0.123691,  -9.750294,  -0.060867,   0.617927,  27.053628,   0.323498,   0.038470,   1.072070,  -0.780990, -244.500000, -144.000000, -432.000000,   0.894116, -90.887400, 174.437088,   0.028491,  -0.040043,  -0.711407,   0.701005, 
21886,  -0.095245,  -9.768569,  -0.146241,   0.360500,  27.035308,   0.102762,   0.048457,   1.055320,  -0.780058, -238.500000, -150.000000, -430.500000,   0.881378, -90.884176, 174.234592,   0.029810,  -0.041221,  -0.711317,   0.700967, 
21887,  -0.170350,  -9.751781,  -0.112822,   0.440495,  27.152838,   0.315569,   0.051201,   1.057763,  -0.766192, -237.000000, -148.500000, -426.000000,   0.881218, -90.880904, 174.034704,   0.031034,  -0.042460,  -0.711219,   0.700929, 
21888,  -0.115705,  -9.803900,  -0.168844,   0.578057,  27.346770,   0.223831,   0.052276,   1.071070,  -0.764460, -237.000000, -144.000000, -426.000000,   0.876812, -90.878704, 173.834128,   0.032289,  -0.043677,  -0.711129,   0.700883, 
21889,  -0.163977,  -9.731898,  -0.084958,   0.520280,  27.516820,   0.400275,   0.058072,   1.071973,  -0.765108, -234.000000, -144.000000, -426.000000,   0.879345, -90.873072, 173.629584,   0.033527,  -0.044960,  -0.711014,   0.700860, 
21890,  -0.162388,  -9.797198,  -0.175089,   0.617813,  27.907512,   0.303855,   0.062605,   1.055948,  -0.772603, -231.000000, -150.000000, -427.500000,   0.879071, -90.869744, 173.419392,   0.034816,  -0.046262,  -0.710911,   0.700819, 
21891,  -0.174339,  -9.700285,  -0.114391,   0.560337,  28.440698,   0.169580,   0.066049,   1.064456,  -0.767235, -229.500000, -147.000000, -426.000000,   0.880900, -90.869952, 173.204368,   0.036119,  -0.047607,  -0.710828,   0.700756, 
21892,  -0.102060,  -9.844699,  -0.185295,   0.499921,  29.019960,   0.348430,   0.062217,   1.086545,  -0.768237, -232.500000, -139.500000, -427.500000,   0.873898, -90.870232, 172.990912,   0.037468,  -0.048889,  -0.710750,   0.700690, 
21893,  -0.060076,  -9.712166,  -0.188564,   0.548063,  29.532418,   0.266200,   0.065473,   1.091432,  -0.767983, -231.000000, -138.000000, -427.500000,   0.862580, -90.872408, 172.769696,   0.038890,  -0.050192,  -0.710666,   0.700593, 
21894,  -0.046856,  -9.755604,  -0.232626,   0.475348,  30.016550,   0.391974,   0.067345,   1.086997,  -0.741082, -229.500000, -138.000000, -418.500000,   0.851213, -90.880352, 172.540272,   0.040359,  -0.051548,  -0.710613,   0.700456, 
21895,  -0.043296,  -9.766332,  -0.191623,   0.733256,  30.512660,   0.301128,   0.080181,   1.062278,  -0.769432, -222.000000, -148.500000, -426.000000,   0.839678, -90.876856, 172.297712,   0.041915,  -0.052980,  -0.710484,   0.700384, 
21896,  -0.096710,  -9.758653,  -0.073655,   0.383772,  31.182240,   0.420378,   0.070803,   1.057666,  -0.750310, -226.500000, -148.500000, -420.000000,   0.837700, -90.875408, 172.060752,   0.043376,  -0.054436,  -0.710366,   0.700305, 
21897,  -0.057185,  -9.854046,  -0.164507,   0.705622,  31.572118,   0.265495,   0.068247,   1.058843,  -0.759061, -228.000000, -148.500000, -423.000000,   0.823406, -90.873272, 171.825488,   0.044904,  -0.055807,  -0.710251,   0.700226, 
21898,  -0.101536,  -9.765723,  -0.074876,   0.424620,  31.831266,   0.371439,   0.080727,   1.070335,  -0.763739, -222.000000, -145.500000, -424.500000,   0.814221, -90.874632, 171.587920,   0.046412,  -0.057224,  -0.710154,   0.700126, 
21899,  -0.016185,  -9.874135,  -0.184150,   0.780419,  32.172398,   0.168681,   0.091276,   1.064447,  -0.747463, -216.000000, -147.000000, -418.500000,   0.798576, -90.868856, 171.331040,   0.048081,  -0.058718,  -0.709990,   0.700043, 
21900,  -0.092711,  -9.679485,  -0.072391,   0.516422,  32.436116,   0.400602,   0.093474,   1.058834,  -0.739290, -214.500000, -148.500000, -415.500000,   0.794270, -90.866864, 171.069056,   0.049708,  -0.060313,  -0.709839,   0.699937, 
21901,  -0.174458,  -9.880333,  -0.177990,   0.701251,  32.671134,   0.246293,   0.091481,   1.070875,  -0.732695, -216.000000, -144.000000, -414.000000,   0.798537, -90.864296, 170.810896,   0.051260,  -0.061937,  -0.709682,   0.699840, 
21902,  -0.190128,  -9.667185,  -0.119141,   0.437155,  33.103436,   0.394179,   0.083862,   1.082827,  -0.729991, -220.500000, -139.500000, -414.000000,   0.801641, -90.866784, 170.561280,   0.052764,  -0.063503,  -0.709561,   0.699715, 
21903,  -0.280376,  -9.842132,  -0.153573,   0.578491,  33.383160,   0.265327,   0.088770,   1.074044,  -0.727257, -217.500000, -142.500000, -412.500000,   0.821012, -90.866024, 170.320816,   0.054113,  -0.065110,  -0.709417,   0.699622, 
21904,  -0.223093,  -9.736042,  -0.199697,   0.588727,  33.654188,   0.309901,   0.090780,   1.064810,  -0.724198, -216.000000, -145.500000, -411.000000,   0.833153, -90.873768, 170.074144,   0.055540,  -0.066715,  -0.709318,   0.699465, 
21905,  -0.224976,  -9.828204,  -0.136888,   0.504373,  33.629104,   0.392655,   0.094395,   1.074133,  -0.723367, -214.500000, -142.500000, -411.000000,   0.848611, -90.876904, 169.827408,   0.056947,  -0.068337,  -0.709176,   0.699326, 
21906,  -0.148411,  -9.760615,  -0.176140,   0.647641,  33.547740,   0.395689,   0.096780,   1.072141,  -0.710079, -213.000000, -142.500000, -406.500000,   0.855142, -90.877184, 169.576016,   0.058440,  -0.069933,  -0.709019,   0.699198, 
21907,  -0.197302,  -9.747911,  -0.157611,   0.552688,  33.115140,   0.415000,   0.098260,   1.057657,  -0.703060, -211.500000, -147.000000, -403.500000,   0.864683, -90.879952, 169.287056,   0.060142,  -0.071780,  -0.708852,   0.699036, 
21908,  -0.236798,  -9.774534,  -0.126054,   0.735988,  32.906384,   0.263426,   0.110194,   1.061092,  -0.713431, -205.500000, -147.000000, -406.500000,   0.868665, -90.874568, 168.996112,   0.061896,  -0.073601,  -0.708636,   0.698922, 
21909,  -0.185623,  -9.754265,  -0.155954,   0.601531,  32.632138,   0.306389,   0.111424,   1.072406,  -0.725889, -205.500000, -144.000000, -411.000000,   0.871698, -90.875464, 168.746912,   0.063397,  -0.075162,  -0.708486,   0.698789, 
21910,  -0.109116,  -9.709921,  -0.194108,   0.601762,  32.355056,   0.243449,   0.111970,   1.080463,  -0.720196, -205.500000, -141.000000, -409.500000,   0.868135, -90.876960, 168.502576,   0.064908,  -0.076651,  -0.708328,   0.698634, 
21911,  -0.088425,  -9.777842,  -0.118000,   0.534891,  32.111698,   0.559431,   0.111457,   1.078019,  -0.706584, -205.500000, -141.000000, -405.000000,   0.870067, -90.872584, 168.264160,   0.066352,  -0.078133,  -0.708135,   0.698521, 
21912,  -0.072151,  -9.857225,  -0.187441,   0.707118,  31.760000,   0.477720,   0.111799,   1.079648,  -0.715659, -205.500000, -141.000000, -408.000000,   0.866256, -90.870024, 168.030368,   0.067802,  -0.079553,  -0.707959,   0.698396, 
21913,  -0.164511,  -9.752515,  -0.048189,   0.547975,  31.270300,   0.319317,   0.112875,   1.092955,  -0.713926, -205.500000, -136.500000, -408.000000,   0.863570, -90.865536, 167.805392,   0.069193,  -0.080924,  -0.707778,   0.698289, 
21914,  -0.124208,  -9.849316,  -0.196676,   0.560938,  30.824914,   0.207111,   0.114339,   1.075664,  -0.716560, -204.000000, -142.500000, -408.000000,   0.851017, -90.866544, 167.584192,   0.070618,  -0.082214,  -0.707640,   0.698145, 
21915,  -0.082949,  -9.793508,  -0.109576,   0.510511,  30.078128,   0.271614,   0.118155,   1.050769,  -0.725211, -201.000000, -151.500000, -409.500000,   0.841547, -90.865680, 167.371040,   0.071976,  -0.083473,  -0.707493,   0.698018, 
21916,  -0.032795,  -9.798841,  -0.210124,   0.539765,  29.589600,   0.428613,   0.118701,   1.058825,  -0.719518, -201.000000, -148.500000, -408.000000,   0.834684, -90.867344, 167.166480,   0.073263,  -0.084695,  -0.707353,   0.697868, 
21917,  -0.052928,  -9.755278,  -0.077458,   0.632150,  29.394116,   0.513187,   0.118155,   1.050769,  -0.725211, -201.000000, -151.500000, -409.500000,   0.832281, -90.860136, 166.970512,   0.074476,  -0.085885,  -0.707161,   0.697781, 
21918,  -0.126860,  -9.793734,  -0.209642,   0.502594,  29.286720,   0.327090,   0.121753,   1.057285,  -0.734032, -199.500000, -150.000000, -412.500000,   0.829010, -90.861160, 166.780128,   0.075655,  -0.087040,  -0.707023,   0.697645, 
21919,  -0.160328,  -9.690371,  -0.108902,   0.534647,  29.046220,   0.279655,   0.128095,   1.066244,  -0.728988, -196.500000, -147.000000, -411.000000,   0.824143, -90.860144, 166.587616,   0.076857,  -0.088197,  -0.706873,   0.697519, 
21920,  -0.116546,  -9.818151,  -0.130499,   0.380664,  29.099768,   0.244098,   0.124889,   1.069777,  -0.700284, -198.000000, -144.000000, -402.000000,   0.817509, -90.859616, 166.390768,   0.078097,  -0.089371,  -0.706724,   0.697386, 
21921,  -0.062257,  -9.788149,  -0.175517,   0.731873,  29.028294,   0.342430,   0.129984,   1.064615,  -0.692434, -195.000000, -145.500000, -399.000000,   0.813710, -90.857448, 166.150208,   0.079587,  -0.090830,  -0.706530,   0.697236, 
21922,  -0.070534,  -9.772737,  -0.183240,   0.449165,  29.136878,   0.576224,   0.138507,   1.065155,  -0.688869, -190.500000, -145.500000, -397.500000,   0.808794, -90.856936, 165.860992,   0.081377,  -0.092584,  -0.706303,   0.697037, 
21923,  -0.140990,  -9.753728,  -0.083424,   0.553126,  29.207160,   0.448074,   0.137994,   1.062712,  -0.675256, -190.500000, -145.500000, -393.000000,   0.807108, -90.846496, 165.571072,   0.083159,  -0.094352,  -0.705997,   0.696884, 
21924,  -0.153155,  -9.773548,  -0.202742,   0.363959,  29.153362,   0.279678,   0.146704,   1.066873,  -0.666576, -186.000000, -144.000000, -390.000000,   0.801489, -90.851896, 165.280912,   0.084953,  -0.096108,  -0.705790,   0.696631, 
21925,  -0.196562,  -9.748126,  -0.113933,   0.531183,  29.534604,   0.105532,   0.152484,   1.064969,  -0.676876, -183.000000, -145.500000, -393.000000,   0.802768, -90.851920, 164.989984,   0.086713,  -0.097908,  -0.705544,   0.696415, 
21926,  -0.197603,  -9.816116,  -0.093331,   0.388845,  29.927030,   0.241480,   0.148339,   1.050397,  -0.673747, -184.500000, -150.000000, -391.500000,   0.810602, -90.848264, 164.693824,   0.088469,  -0.099777,  -0.705266,   0.696224, 
21927,  -0.150942,  -9.786017,  -0.175586,   0.633495,  30.390160,   0.461274,   0.136918,   1.049405,  -0.676989, -190.500000, -150.000000, -393.000000,   0.819958, -90.849552, 164.393184,   0.090236,  -0.101684,  -0.705003,   0.695990, 
21928,  -0.181880,  -9.749238,  -0.183464,   0.724730,  30.950916,   0.567975,   0.137773,   1.053478,  -0.699676, -190.500000, -150.000000, -400.500000,   0.832724, -90.852752, 164.087600,   0.092009,  -0.103643,  -0.704730,   0.695731, 
21929,  -0.343583,  -9.785941,  -0.114465,   0.630780,  30.977060,   0.419454,   0.157359,   1.050574,  -0.693447, -180.000000, -151.500000, -397.500000,   0.850961, -90.844808, 163.779440,   0.093775,  -0.105641,  -0.704383,   0.695543, 
21930,  -0.280788,  -9.744976,  -0.036067,   0.433199,  30.931912,   0.198902,   0.162096,   1.040977,  -0.686175, -177.000000, -154.500000, -394.500000,   0.861662, -90.839120, 163.471600,   0.095583,  -0.107594,  -0.704055,   0.695336, 
21931,  -0.122562,  -9.743587,  -0.174165,   0.583682,  30.559168,   0.437620,   0.162813,   1.049848,  -0.685020, -177.000000, -151.500000, -394.500000,   0.864221, -90.838192, 163.166064,   0.097423,  -0.109487,  -0.703766,   0.695095, 
21932,  -0.125302,  -9.802096,  -0.164783,   0.637661,  29.972946,   0.636670,   0.167487,   1.069670,  -0.692109, -175.500000, -145.500000, -397.500000,   0.870217, -90.836536, 162.864432,   0.099216,  -0.111373,  -0.703453,   0.694845, 
21933,  -0.142975,  -9.791536,  -0.085235,   0.417562,  29.403494,   0.510989,   0.163872,   1.060348,  -0.692940, -177.000000, -148.500000, -397.500000,   0.878193, -90.833544, 162.569088,   0.100960,  -0.113230,  -0.703133,   0.694608, 
21934,  -0.205005,  -9.789390,  -0.150614,   0.651044,  28.691078,   0.466093,   0.162658,   1.051840,  -0.670830, -177.000000, -150.000000, -390.000000,   0.880156, -90.834016, 162.280176,   0.102698,  -0.115015,  -0.702846,   0.694350, 
21935,  -0.140634,  -9.744734,  -0.154235,   0.616952,  27.827666,   0.345942,   0.169513,   1.063243,  -0.679398, -174.000000, -147.000000, -393.000000,   0.871795, -90.833424, 161.999200,   0.104453,  -0.116688,  -0.702571,   0.694096, 
21936,  -0.093000,  -9.786921,  -0.133253,   0.633149,  26.885450,   0.494736,   0.180405,   1.058984,  -0.672196, -168.000000, -148.500000, -390.000000,   0.861660, -90.831024, 161.727296,   0.106165,  -0.118292,  -0.702296,   0.693860, 
21937,   0.108202,  -9.800776,  -0.112878,   0.684767,  26.095674,   0.899014,   0.179908,   1.059347,  -0.648931, -168.000000, -147.000000, -382.500000,   0.841498, -90.822352, 161.464256,   0.107890,  -0.119773,  -0.701983,   0.693640, 
21938,   0.085064,  -9.766973,  -0.126601,   0.684696,  25.251530,   1.084183,   0.169375,   1.068041,  -0.655555, -174.000000, -144.000000, -385.500000,   0.823903, -90.812304, 161.209264,   0.109551,  -0.121218,  -0.701668,   0.693438, 
21939,  -0.126392,  -9.788149,  -0.036126,   0.562358,  24.937508,   0.502862,   0.174079,   1.052831,  -0.667588, -171.000000, -150.000000, -388.500000,   0.822301, -90.798176, 160.960160,   0.111083,  -0.122720,  -0.701318,   0.693283, 
21940,  -0.164854,  -9.768072,  -0.261842,   0.721372,  24.399912,  -0.183766,   0.181698,   1.040879,  -0.670293, -166.500000, -154.500000, -388.500000,   0.812629, -90.797600, 160.714720,   0.112628,  -0.124163,  -0.701063,   0.693039, 
21941,   0.024614,  -9.612544,  -0.099209,  -0.036566,  24.161148,  -0.248575,   0.172491,   1.037081,  -0.655708, -171.000000, -154.500000, -384.000000,   0.793455, -90.798376, 160.473088,   0.114207,  -0.125527,  -0.700830,   0.692781, 
21942,  -0.019189,  -9.933792,  -0.298574,   0.716942,  24.218252,   0.243269,   0.167070,   1.043420,  -0.644830, -174.000000, -151.500000, -381.000000,   0.774213, -90.799728, 160.232800,   0.115776,  -0.126882,  -0.700597,   0.692515, 
21943,   0.011237,  -9.650899,  -0.100515,   0.319563,  24.752820,   0.810213,   0.171790,   1.031017,  -0.647210, -171.000000, -156.000000, -381.000000,   0.764200, -90.799000, 159.989248,   0.117308,  -0.128309,  -0.700326,   0.692255, 
21944,  -0.129662,  -9.779116,  -0.191226,   0.750163,  25.335246,   0.665750,   0.180826,   1.034000,  -0.657258, -166.500000, -156.000000, -384.000000,   0.759295, -90.794504, 159.740528,   0.118845,  -0.129793,  -0.700021,   0.692017, 
21945,  -0.068288,  -9.788985,  -0.030972,   0.566870,  26.235448,   0.343210,   0.187527,   1.047395,  -0.651636, -163.500000, -151.500000, -382.500000,   0.748590, -90.788136, 159.483696,   0.120469,  -0.131291,  -0.699702,   0.691777, 
21946,  -0.016964,  -9.848854,  -0.219811,   0.541945,  27.390204,   0.390527,   0.178336,   1.046404,  -0.627398, -168.000000, -150.000000, -375.000000,   0.748054, -90.789744, 159.216944,   0.122081,  -0.132918,  -0.699408,   0.691488, 
21947,  -0.010701,  -9.720542,  -0.099545,   0.582708,  28.699284,   0.300129,   0.172744,   1.051928,  -0.611983, -171.000000, -147.000000, -370.500000,   0.741214, -90.785880, 158.938240,   0.123810,  -0.134575,  -0.699075,   0.691212, 
21948,  -0.247000,  -9.821153,  -0.208392,   0.334404,  30.201768,  -0.374080,   0.185037,   1.059799,  -0.621777, -165.000000, -145.500000, -373.500000,   0.740522, -90.792792, 158.645920,   0.125568,  -0.136360,  -0.698766,   0.690845, 
21949,  -0.076356,  -9.704242,  -0.141335,   0.216908,  31.479250,  -0.724971,   0.195537,   1.045492,  -0.634457, -159.000000, -151.500000, -376.500000,   0.724327, -90.796144, 158.339424,   0.127509,  -0.138134,  -0.698433,   0.690463, 
21950,   0.093267,  -9.777881,  -0.492253,   0.624302,  32.550992,  -0.089334,   0.198248,   1.042322,  -0.639897, -157.500000, -153.000000, -378.000000,   0.701104, -90.817704, 158.021264,   0.129541,  -0.139958,  -0.698205,   0.689949, 
21951,  -0.250855,  -9.845013,  -0.009945,   0.696105,  33.382896,   1.237479,   0.190099,   1.049024,  -0.633232, -162.000000, -150.000000, -376.500000,   0.726182, -90.813672, 157.693648,   0.131366,  -0.142101,  -0.697753,   0.689635, 
21952,  -0.237706,  -9.794588,  -0.109681,   0.619812,  34.384628,  -0.257941,   0.181234,   1.046855,  -0.627723, -166.500000, -150.000000, -375.000000,   0.752543, -90.803376, 157.356992,   0.133244,  -0.144296,  -0.697240,   0.689342, 
21953,  -0.532008,  -9.773235,  -0.180188,   0.701972,  34.795820,   0.949341,   0.190645,   1.057081,  -0.627540, -162.000000, -147.000000, -375.000000,   0.771952, -90.822560, 157.011408,   0.135178,  -0.146536,  -0.696885,   0.688836, 
21954,  -0.417118,  -9.644439,   0.042263,   0.669748,  35.537852,  -0.476716,   0.202441,   1.065314,  -0.614068, -156.000000, -144.000000, -370.500000,   0.807480, -90.794696, 156.661696,   0.137099,  -0.148841,  -0.696221,   0.688632, 
21955,  -0.201563,  -9.793088,  -0.393739,   0.583343,  35.791380,   0.748148,   0.202303,   1.070113,  -0.590226, -156.000000, -141.000000, -363.000000,   0.819410, -90.814256, 156.305472,   0.139142,  -0.151102,  -0.695863,   0.688105, 
21956,  -0.270630,  -9.617780,   0.075373,   0.743795,  36.238228,   0.449384,   0.213349,   1.063862,  -0.597214, -150.000000, -144.000000, -364.500000,   0.858780, -90.782272, 155.947328,   0.141096,  -0.153472,  -0.695145,   0.687912, 
21957,  -0.348923,  -9.838708,  -0.325819,   0.821230,  36.423072,   0.875131,   0.208659,   1.041233,  -0.599778, -151.500000, -151.500000, -364.500000,   0.885381, -90.794016, 155.584304,   0.143095,  -0.155846,  -0.694684,   0.687417, 
21958,  -0.364374,  -9.636787,   0.050006,   0.766079,  36.909132,   0.221735,   0.211215,   1.040056,  -0.591027, -150.000000, -151.500000, -361.500000,   0.910703, -90.778464, 155.219712,   0.145149,  -0.158187,  -0.694056,   0.687085, 
21959,  -0.326037,  -9.797733,  -0.166276,   0.417906,  37.230852,   0.354159,   0.218804,   1.063136,  -0.588787, -147.000000, -144.000000, -361.500000,   0.920057, -90.780296, 154.849616,   0.147310,  -0.160487,  -0.693547,   0.686621, 
21960,  -0.131579,  -9.762172,   0.023328,   0.825558,  37.582948,   0.582479,   0.212478,   1.056983,  -0.584179, -150.000000, -145.500000, -360.000000,   0.930029, -90.771352, 154.477312,   0.149491,  -0.162787,  -0.692953,   0.686205, 
21961,  -0.116815,  -9.858693,  -0.253873,   0.734918,  38.058348,   0.537710,   0.217557,   1.049015,  -0.585982, -147.000000, -148.500000, -360.000000,   0.939851, -90.776416, 154.100080,   0.151681,  -0.165132,  -0.692424,   0.685686, 
21962,  -0.205862,  -9.764367,  -0.046997,   0.909373,  38.374500,   0.783129,   0.226267,   1.053176,  -0.577302, -142.500000, -147.000000, -357.000000,   0.944471, -90.775696, 153.719856,   0.153929,  -0.167455,  -0.691863,   0.685191, 
21963,  -0.251810,  -9.750310,  -0.090740,   0.682236,  38.759736,   0.244987,   0.229882,   1.062499,  -0.576471, -141.000000, -144.000000, -357.000000,   0.948561, -90.769104, 153.335904,   0.156211,  -0.169790,  -0.691262,   0.684726, 
21964,  -0.223059,  -9.747885,  -0.114786,   0.872011,  39.195988,   0.596178,   0.220455,   1.049467,  -0.586306, -145.500000, -148.500000, -360.000000,   0.945635, -90.774536, 152.947488,   0.158539,  -0.172120,  -0.690711,   0.684148, 
21965,  -0.100005,  -9.748823,  -0.267837,   0.812025,  39.738272,   0.307317,   0.217728,   1.049830,  -0.590520, -147.000000, -148.500000, -361.500000,   0.946668, -90.774432, 152.554720,   0.160876,  -0.174492,  -0.690112,   0.683599, 
21966,  -0.133782,  -9.712472,  -0.145048,   0.835256,  40.137816,   0.751753,   0.225892,   1.045934,  -0.587532, -142.500000, -150.000000, -360.000000,   0.946960, -90.774640, 152.156752,   0.163248,  -0.176891,  -0.689507,   0.683040, 
21967,  -0.206066,  -9.845263,   0.025798,   0.621008,  40.470380,   0.744664,   0.232827,   1.030724,  -0.572086, -138.000000, -154.500000, -354.000000,   0.952678, -90.764904, 151.755376,   0.165621,  -0.179326,  -0.688821,   0.682535, 
21968,  -0.271749,  -9.725541,  -0.161298,   0.889772,  40.974516,   0.488725,   0.234666,   1.020676,  -0.564490, -136.500000, -157.500000, -351.000000,   0.955695, -90.766192, 151.349568,   0.168015,  -0.181782,  -0.688176,   0.681933, 
21969,  -0.193837,  -9.740588,  -0.043088,   0.635604,  41.020156,   0.406475,   0.235024,   1.025111,  -0.563913, -136.500000, -156.000000, -351.000000,   0.951558, -90.756808, 150.941456,   0.170483,  -0.184193,  -0.687476,   0.681381, 
21970,  -0.057207,  -9.819565,  -0.134189,   0.877182,  41.144428,   0.463562,   0.236271,   1.039232,  -0.566718, -136.500000, -151.500000, -352.500000,   0.939592, -90.752816, 150.531296,   0.173002,  -0.186578,  -0.686817,   0.680781, 
21971,  -0.043495,  -9.758920,  -0.046111,   0.833526,  41.128416,   0.793509,   0.241742,   1.041313,  -0.548638, -133.500000, -150.000000, -346.500000,   0.936722, -90.742480, 150.121120,   0.175470,  -0.189001,  -0.686080,   0.680208, 
21972,  -0.100512,  -9.774981,  -0.182875,   0.978187,  40.976316,   0.687965,   0.247399,   1.047014,  -0.525444, -130.500000, -147.000000, -339.000000,   0.935155, -90.734168, 149.712176,   0.177919,  -0.191425,  -0.685351,   0.679621, 
21973,  -0.160605,  -9.741450,   0.030929,   0.701721,  40.798792,   0.638250,   0.245047,   1.054619,  -0.519427, -132.000000, -144.000000, -337.500000,   0.933711, -90.723576, 149.304848,   0.180361,  -0.193836,  -0.684612,   0.679051, 
21974,  -0.189328,  -9.830352,  -0.083837,   0.870328,  40.441408,   0.407481,   0.253212,   1.050724,  -0.516439, -127.500000, -145.500000, -336.000000,   0.928883, -90.713696, 148.899952,   0.182806,  -0.196210,  -0.683874,   0.678462, 
21975,  -0.206677,  -9.708549,  -0.083883,   0.738109,  40.122228,   0.557007,   0.256093,   1.048369,  -0.526416, -126.000000, -147.000000, -339.000000,   0.928792, -90.710472, 148.498320,   0.185187,  -0.198598,  -0.683156,   0.677830, 
21976,  -0.099726,  -9.778442,  -0.229494,   0.899227,  39.889800,   0.406703,   0.245886,   1.055885,  -0.551767, -132.000000, -145.500000, -348.000000,   0.924494, -90.708632, 148.099568,   0.187574,  -0.200946,  -0.682459,   0.677186, 
21977,  -0.200300,  -9.728715,  -0.058472,   0.708373,  39.712880,   0.514595,   0.258959,   1.043207,  -0.546045, -124.500000, -150.000000, -345.000000,   0.935229, -90.705888, 147.702816,   0.189861,  -0.203369,  -0.681733,   0.676576, 
21978,  -0.132227,  -9.843483,  -0.137715,   0.946024,  39.455104,   0.660583,   0.257386,   1.030264,  -0.524512, -124.500000, -153.000000, -337.500000,   0.936857, -90.698872, 147.308192,   0.192190,  -0.205711,  -0.680977,   0.675955, 
21979,  -0.187975,  -9.768044,   0.091494,   0.661811,  39.320828,   0.367870,   0.255018,   1.035062,  -0.528148, -126.000000, -151.500000, -339.000000,   0.946456, -90.681032, 146.916064,   0.194476,  -0.208065,  -0.680144,   0.675413, 
21980,  -0.281276,  -9.878439,  -0.082194,   0.746461,  39.241904,   0.628488,   0.268432,   1.024013,  -0.531501, -118.500000, -156.000000, -339.000000,   0.957008, -90.681448, 146.524384,   0.196722,  -0.210453,  -0.679417,   0.674765, 
21981,  -0.215693,  -9.747694,   0.012809,   0.894921,  39.472260,   0.512375,   0.274041,   1.021295,  -0.537264, -115.500000, -157.500000, -340.500000,   0.964343, -90.666816, 146.132288,   0.199014,  -0.212795,  -0.678597,   0.674192, 
21982,  -0.229673,  -9.766335,  -0.101209,   0.597427,  39.775180,   0.470965,   0.262157,   1.026280,  -0.497935, -121.500000, -153.000000, -328.500000,   0.979149, -90.663760, 145.737616,   0.201250,  -0.215210,  -0.677807,   0.673539, 
21983,  -0.173584,  -9.731877,  -0.004570,   0.791735,  40.335620,   0.561389,   0.259837,   1.039498,  -0.472614, -123.000000, -147.000000, -321.000000,   0.991707, -90.650160, 145.339104,   0.203543,  -0.217615,  -0.676952,   0.672938, 
21984,  -0.322229,  -9.870695,  -0.027019,   0.778832,  40.799152,   0.743541,   0.268173,   1.036417,  -0.474163, -118.500000, -148.500000, -321.000000,   1.018653, -90.646176, 144.934928,   0.205765,  -0.220154,  -0.676114,   0.672298, 
21985,  -0.368070,  -9.814363,  -0.030273,   1.060085,  41.429412,   0.609887,   0.269232,   1.046916,  -0.482083, -118.500000, -145.500000, -324.000000,   1.034857, -90.632432, 144.525296,   0.208096,  -0.222637,  -0.675206,   0.671663, 
21986,  -0.306820,  -9.698400,   0.078852,   0.470777,  41.741712,   0.530617,   0.260726,   1.049183,  -0.475996, -123.000000, -144.000000, -322.500000,   1.052432, -90.620800, 144.111264,   0.210439,  -0.225155,  -0.674291,   0.671004, 
21987,  -0.244550,  -9.786532,  -0.012219,   0.885666,  41.979920,   0.330549,   0.270371,   1.030804,  -0.465990, -117.000000, -150.000000, -318.000000,   1.062798, -90.606760, 143.694864,   0.212845,  -0.227640,  -0.673371,   0.670343, 
21988,  -0.155220,  -9.785110,  -0.018634,   0.791291,  42.044048,   0.652658,   0.287962,   1.039940,  -0.453166, -108.000000, -147.000000, -313.500000,   1.069461, -90.596104, 143.276496,   0.215274,  -0.230117,  -0.672463,   0.669639, 
21989,  -0.165408,  -9.749690,   0.023215,   0.930130,  42.195112,   0.682980,   0.278926,   1.036957,  -0.443119, -112.500000, -147.000000, -310.500000,   1.072817, -90.577448, 142.857296,   0.217738,  -0.232557,  -0.671494,   0.668956, 
21990,  -0.274854,  -9.788913,   0.062504,   0.718084,  42.462480,   0.685395,   0.270604,   1.002199,  -0.456166, -115.500000, -159.000000, -313.500000,   1.080847, -90.561040, 142.436064,   0.220182,  -0.235039,  -0.670525,   0.668265, 
21991,  -0.297582,  -9.814744,   0.021595,   0.961554,  42.736744,   0.501485,   0.276946,   1.011158,  -0.451122, -112.500000, -156.000000, -312.000000,   1.088140, -90.542528, 142.011936,   0.222653,  -0.237529,  -0.669537,   0.667577, 
21992,  -0.229031,  -9.659595,   0.015130,   0.706924,  43.039796,   0.504064,   0.282963,   1.021295,  -0.427350, -109.500000, -151.500000, -304.500000,   1.091736, -90.531480, 141.584976,   0.225137,  -0.240018,  -0.668566,   0.666805, 
21993,  -0.171096,  -9.815831,   0.012505,   0.794517,  43.208460,   0.473214,   0.287700,   1.011698,  -0.420078, -106.500000, -154.500000, -301.500000,   1.097620, -90.518184, 141.155088,   0.227631,  -0.242531,  -0.667570,   0.666044, 
21994,  -0.198629,  -9.777714,  -0.087411,   0.931391,  43.200580,   0.735670,   0.285861,   1.021747,  -0.427674, -108.000000, -151.500000, -304.500000,   1.099241, -90.510800, 140.724720,   0.230140,  -0.245035,  -0.666617,   0.665239, 
21995,  -0.148169,  -9.705343,  -0.029150,   0.826165,  42.950876,   0.564718,   0.281140,   1.034150,  -0.425293, -111.000000, -147.000000, -304.500000,   1.095532, -90.500480, 140.295344,   0.232673,  -0.247486,  -0.665637,   0.664419, 
21996,  -0.101818,  -9.720774,  -0.094323,   0.745447,  42.594976,   0.513991,   0.288947,   1.025819,  -0.422883, -106.500000, -150.000000, -303.000000,   1.090351, -90.493976, 139.869312,   0.235185,  -0.249915,  -0.664682,   0.663573, 
21997,  -0.049740,  -9.791766,  -0.164213,   0.860205,  42.061552,   0.627620,   0.290785,   1.015771,  -0.415287, -105.000000, -153.000000, -300.000000,   1.081510, -90.493528, 139.446848,   0.237684,  -0.252314,  -0.663778,   0.662691, 
21998,  -0.049698,  -9.741039,  -0.114014,   0.795610,  41.598860,   0.575173,   0.293716,   1.021835,  -0.396306, -103.500000, -150.000000, -294.000000,   1.077193, -90.499408, 139.029632,   0.240107,  -0.254717,  -0.662900,   0.661779, 
21999,  -0.016698,  -9.802847,  -0.104368,   0.830530,  41.180892,   0.615514,   0.299529,   1.025545,  -0.387301, -100.500000, -148.500000, -291.000000,   1.064528, -90.501472, 138.616912,   0.242556,  -0.257032,  -0.662011,   0.660864, 
22000,  -0.146144,  -9.843483,  -0.107131,   0.853726,  40.513008,   0.486897,   0.298641,   1.015859,  -0.383919, -100.500000, -151.500000, -289.500000,   1.059535, -90.508224, 138.210016,   0.244915,  -0.259368,  -0.661146,   0.659951, 
22001,  -0.199299,  -9.825642,  -0.158203,   0.931801,  39.819948,   0.484147,   0.303891,   1.008706,  -0.390259, -97.500000, -154.500000, -291.000000,   1.045287, -90.514152, 137.808752,   0.247298,  -0.261616,  -0.660310,   0.659034, 
22002,  -0.052659,  -9.625190,  -0.122219,   0.737483,  39.133132,   0.226121,   0.309703,   1.012415,  -0.381254, -94.500000, -153.000000, -288.000000,   1.027203, -90.515928, 137.415552,   0.249654,  -0.263777,  -0.659450,   0.658121, 
22003,   0.057598,  -9.833437,  -0.197736,   0.604054,  38.285556,   0.259876,   0.301760,   1.025545,  -0.359823, -99.000000, -147.000000, -282.000000,   1.008619, -90.518816, 137.029856,   0.251968,  -0.265895,  -0.658615,   0.657217, 
22004,   0.144523,  -9.705247,  -0.083034,   0.600333,  37.508128,   0.735322,   0.302460,   1.031609,  -0.368320, -99.000000, -145.500000, -285.000000,   0.991702, -90.507616, 136.652752,   0.254255,  -0.267942,  -0.657716,   0.656415, 
22005,  -0.048344,  -9.826694,  -0.204816,   0.741977,  36.888456,   0.809034,   0.304658,   1.025996,  -0.360147, -97.500000, -147.000000, -282.000000,   0.983827, -90.508360, 136.282560,   0.256420,  -0.270023,  -0.656873,   0.655571, 
22006,  -0.135344,  -9.718855,  -0.099883,   0.820300,  36.270108,   0.532988,   0.303957,   1.019932,  -0.351649, -97.500000, -148.500000, -279.000000,   0.973325, -90.504896, 135.918288,   0.258568,  -0.272040,  -0.656009,   0.654742, 
22007,  -0.082188,  -9.787891,  -0.094354,   0.664356,  35.889472,   0.248914,   0.309207,   1.012778,  -0.357990, -94.500000, -151.500000, -280.500000,   0.951393, -90.504320, 135.558496,   0.260750,  -0.273972,  -0.655199,   0.653879, 
22008,  -0.004288,  -9.757791,  -0.102474,   0.702772,  35.619376,   0.215529,   0.302352,   1.001375,  -0.349422, -97.500000, -154.500000, -277.500000,   0.927244, -90.505296, 135.202512,   0.262918,  -0.275874,  -0.654414,   0.653009, 
22009,   0.038257,  -9.831858,  -0.158535,   0.634191,  35.186756,   0.437231,   0.298721,   0.989246,  -0.359905, -99.000000, -159.000000, -280.500000,   0.905956, -90.511096, 134.849920,   0.265035,  -0.277780,  -0.653647,   0.652115, 
22010,   0.156585,  -9.758331,  -0.163242,   0.795673,  34.651276,   0.556173,   0.307210,   0.984173,  -0.375644, -94.500000, -162.000000, -285.000000,   0.876793, -90.511032, 134.502176,   0.267177,  -0.279594,  -0.652865,   0.651233, 
22011,   0.067054,  -9.766971,  -0.089030,   0.593026,  34.119632,   0.487442,   0.315750,   0.987520,  -0.362427, -90.000000, -160.500000, -280.500000,   0.856554, -90.505624, 134.160216,   0.269248,  -0.281414,  -0.652045,   0.650415, 
22012,   0.084591,  -9.825546,  -0.087694,   0.636336,  33.271976,   0.390665,   0.313227,   0.994310,  -0.351873, -91.500000, -157.500000, -277.500000,   0.831033, -90.497032, 133.824736,   0.271321,  -0.283160,  -0.651238,   0.649617, 
22013,   0.049136,  -9.797964,  -0.048267,   0.623137,  32.538296,   0.521566,   0.307431,   0.993407,  -0.351225, -94.500000, -157.500000, -277.500000,   0.808605, -90.488088, 133.496904,   0.273330,  -0.284876,  -0.650433,   0.648838, 
22014,   0.016223,  -9.766326,  -0.006720,   0.723969,  31.715126,   0.407485,   0.297882,   0.987980,  -0.327565, -99.000000, -157.500000, -270.000000,   0.788965, -90.477040, 133.177216,   0.275276,  -0.286549,  -0.649615,   0.648081, 
22015,  -0.006840,  -9.800900,  -0.041866,   0.485189,  30.908850,   0.351850,   0.304224,   0.996940,  -0.322520, -96.000000, -154.500000, -268.500000,   0.772052, -90.469680, 132.865552,   0.277151,  -0.288201,  -0.648832,   0.647329, 
22016,  -0.058014,  -9.804911,  -0.069267,   0.802270,  30.087254,   0.449049,   0.316500,   1.002004,  -0.341967, -90.000000, -154.500000, -274.500000,   0.759071, -90.465320, 132.561984,   0.278951,  -0.289837,  -0.648076,   0.646588, 
22017,  -0.068666,  -9.749074,  -0.095276,   0.515843,  29.358434,   0.247282,   0.314661,   1.012052,  -0.349563, -91.500000, -151.500000, -277.500000,   0.747735, -90.467560, 132.267072,   0.280676,  -0.291449,  -0.647377,   0.645834, 
22018,  -0.048368,  -9.738631,  -0.141150,   0.489913,  28.850200,   0.197353,   0.311233,   1.006351,  -0.345279, -93.000000, -153.000000, -276.000000,   0.739195, -90.472168, 131.977720,   0.282341,  -0.293045,  -0.646683,   0.645072, 
22019,  -0.028112,  -9.771747,  -0.137481,   0.368715,  28.394704,   0.367786,   0.312543,   0.991052,  -0.333723, -91.500000, -157.500000, -271.500000,   0.733499, -90.475752, 131.693160,   0.283963,  -0.294624,  -0.645983,   0.644330, 
22020,  -0.084174,  -9.833607,  -0.150924,   0.574269,  27.872822,   0.459412,   0.321457,   1.001641,  -0.310275, -87.000000, -153.000000, -264.000000,   0.734708, -90.479344, 131.413424,   0.285518,  -0.296216,  -0.645278,   0.643616, 
22021,  -0.172061,  -9.772264,  -0.111275,   0.632983,  27.342826,   0.444841,   0.312046,   0.991415,  -0.310458, -91.500000, -156.000000, -264.000000,   0.733956, -90.483176, 131.138592,   0.287057,  -0.297769,  -0.644591,   0.642909, 
22022,  -0.197443,  -9.757087,  -0.060241,   0.546715,  26.777378,   0.195963,   0.309474,   0.989786,  -0.328861, -93.000000, -157.500000, -270.000000,   0.732788, -90.481264, 130.869048,   0.288583,  -0.299276,  -0.643888,   0.642246, 
22023,  -0.099383,  -9.723716,  -0.106504,   0.311754,  26.456482,   0.154796,   0.324339,   0.999286,  -0.320251, -85.500000, -154.500000, -267.000000,   0.733252, -90.484712, 130.604352,   0.290053,  -0.300773,  -0.643210,   0.641557, 
22024,   0.007373,  -9.794869,  -0.209232,   0.438543,  26.261762,   0.211720,   0.321800,   1.003270,  -0.319350, -87.000000, -153.000000, -267.000000,   0.730059, -90.494128, 130.342440,   0.291509,  -0.302246,  -0.642577,   0.640826, 
22025,   0.015261,  -9.801600,  -0.102358,   0.437454,  26.191790,   0.445444,   0.321816,   1.006076,  -0.309697, -87.000000, -151.500000, -264.000000,   0.729852, -90.493672, 130.081480,   0.292969,  -0.303705,  -0.641883,   0.640161, 
22026,  -0.040328,  -9.812517,  -0.148222,   0.577918,  26.521172,   0.557279,   0.328003,   1.017028,  -0.290463, -84.000000, -147.000000, -258.000000,   0.732543, -90.495776, 129.819256,   0.294413,  -0.305195,  -0.641193,   0.639486, 
22027,  -0.197573,  -9.758322,  -0.031915,   0.571430,  26.707212,   0.403860,   0.337243,   1.026438,  -0.285742, -79.500000, -144.000000, -256.500000,   0.736883, -90.492656, 129.554704,   0.295875,  -0.306693,  -0.640463,   0.638838, 
22028,  -0.272938,  -9.829556,  -0.012459,   0.418935,  26.902836,   0.318626,   0.336510,   1.014761,  -0.296550, -79.500000, -148.500000, -259.500000,   0.742674, -90.488496, 129.287656,   0.297343,  -0.308207,  -0.639711,   0.638188, 
22029,  -0.163158,  -9.724744,  -0.050521,   0.568023,  27.195424,   0.194923,   0.325152,   0.984350,  -0.285430, -84.000000, -157.500000, -255.000000,   0.737768, -90.479208, 129.018344,   0.298892,  -0.309655,  -0.638940,   0.637520, 
22030,  -0.127711,  -9.738411,  -0.086856,   0.355422,  27.409500,   0.213790,   0.310833,   0.982907,  -0.288348, -91.500000, -157.500000, -256.500000,   0.741688, -90.479672, 128.747024,   0.300376,  -0.311188,  -0.638194,   0.636816, 
22031,  -0.061958,  -9.751719,  -0.063949,   0.512639,  27.712646,   0.421075,   0.311191,   0.987343,  -0.287770, -91.500000, -156.000000, -256.500000,   0.741387, -90.468576, 128.473128,   0.301929,  -0.312682,  -0.637388,   0.636158, 
22032,  -0.057706,  -9.775298,  -0.104654,   0.634770,  27.898976,   0.382217,   0.322442,   0.987520,  -0.279991, -85.500000, -156.000000, -253.500000,   0.749504, -90.467360, 128.196552,   0.303424,  -0.314264,  -0.636608,   0.635460, 
22033,  -0.183369,  -9.797370,  -0.037147,   0.601796,  28.041482,   0.401791,   0.324280,   0.977471,  -0.272395, -84.000000, -159.000000, -250.500000,   0.763021, -90.461656, 127.918408,   0.304908,  -0.315870,  -0.635779,   0.634795, 
22034,  -0.289058,  -9.801750,   0.006324,   0.439053,  28.095578,   0.470583,   0.320511,   0.970141,  -0.259036, -85.500000, -160.500000, -246.000000,   0.779036, -90.455760, 127.639584,   0.306376,  -0.317485,  -0.634926,   0.634120, 
22035,  -0.288955,  -9.796401,  -0.010786,   0.644901,  28.031692,   0.245439,   0.320682,   0.970955,  -0.263574, -85.500000, -160.500000, -247.500000,   0.791447, -90.445552, 127.360336,   0.307878,  -0.319070,  -0.634056,   0.633459, 
22036,  -0.251475,  -9.704432,   0.023785,   0.277760,  28.227706,   0.140442,   0.320853,   0.971770,  -0.268111, -85.500000, -160.500000, -249.000000,   0.808321, -90.440712, 127.081128,   0.309341,  -0.320694,  -0.633204,   0.632780, 
22037,  -0.309138,  -9.798594,  -0.057561,   0.630727,  28.361644,   0.399095,   0.336076,   0.985705,  -0.258924, -78.000000, -156.000000, -246.000000,   0.828399, -90.436168, 126.800160,   0.310795,  -0.322345,  -0.632339,   0.632104, 
22038,  -0.302621,  -9.791579,  -0.032130,   0.567323,  28.922972,   0.547617,   0.347343,   0.988688,  -0.241492, -72.000000, -154.500000, -240.000000,   0.851379, -90.432184, 126.514448,   0.312256,  -0.324039,  -0.631452,   0.631418, 
22039,  -0.385376,  -9.779219,  -0.142509,   0.625476,  29.580734,   0.472914,   0.342247,   0.993850,  -0.249342, -75.000000, -153.000000, -243.000000,   0.877413, -90.440920, 126.222992,   0.313688,  -0.325806,  -0.630594,   0.630638, 
22040,  -0.351567,  -9.760381,  -0.177064,   0.778990,  30.327156,   0.383431,   0.334458,   1.004987,  -0.242100, -79.500000, -148.500000, -241.500000,   0.892125, -90.449144, 125.924288,   0.315225,  -0.327550,  -0.629743,   0.629811, 
22041,  -0.191715,  -9.676777,  -0.041848,   0.271550,  31.083472,   0.191111,   0.329988,   0.991592,  -0.220243, -81.000000, -151.500000, -234.000000,   0.904307, -90.450104, 125.618328,   0.316836,  -0.329300,  -0.628838,   0.628997, 
22042,  -0.100391,  -9.811151,  -0.116210,   0.598525,  32.062546,   0.447087,   0.334880,   0.980003,  -0.227161, -78.000000, -156.000000, -235.500000,   0.908096, -90.451168, 125.303680,   0.318541,  -0.331052,  -0.627932,   0.628135, 
22043,  -0.094562,  -9.762304,  -0.021117,   0.840418,  33.121872,   0.703552,   0.339366,   0.996205,  -0.239365, -76.500000, -151.500000, -240.000000,   0.910268, -90.441768, 124.979600,   0.320331,  -0.332812,  -0.626935,   0.627289, 
22044,  -0.128349,  -9.778774,   0.011078,   0.723367,  34.277564,   0.505222,   0.325267,   1.003996,  -0.217863, -84.000000, -147.000000, -234.000000,   0.910829, -90.427104, 124.644872,   0.322198,  -0.334601,  -0.625873,   0.626427, 
22045,  -0.242511,  -9.765800,  -0.042878,   0.606727,  35.486992,   0.377475,   0.321140,   0.992230,  -0.205081, -85.500000, -150.000000, -229.500000,   0.917883, -90.418136, 124.297616,   0.324083,  -0.336508,  -0.624787,   0.625516, 
22046,  -0.210796,  -9.775384,  -0.043238,   0.728936,  36.563276,   0.415349,   0.339228,   1.001003,  -0.215523, -76.500000, -148.500000, -232.500000,   0.921398, -90.411896, 123.938512,   0.326044,  -0.338469,  -0.623691,   0.624548, 
22047,  -0.186735,  -9.768368,  -0.055447,   0.771932,  37.434856,   0.396496,   0.335475,   0.996479,  -0.192511, -78.000000, -148.500000, -225.000000,   0.926636, -90.407912, 123.569696,   0.328035,  -0.340492,  -0.622561,   0.623532, 
22048,  -0.150045,  -9.752540,  -0.066966,   0.578523,  37.862668,   0.471590,   0.330288,   0.974213,  -0.171809, -79.500000, -154.500000, -217.500000,   0.934581, -90.407256, 123.194616,   0.330030,  -0.342565,  -0.621410,   0.622476, 
22049,  -0.267838,  -9.753718,  -0.129812,   0.725849,  38.014024,   0.562931,   0.340008,   0.980455,  -0.200007, -75.000000, -154.500000, -226.500000,   0.953172, -90.411304, 122.817248,   0.331965,  -0.344722,  -0.620246,   0.621419, 
22050,  -0.243818,  -9.737285,  -0.121360,   0.783812,  37.800512,   0.585885,   0.336034,   0.966697,  -0.201415, -76.500000, -159.000000, -226.500000,   0.970525, -90.416248, 122.439664,   0.333905,  -0.346876,  -0.619089,   0.620353, 
22051,  -0.251555,  -9.732513,  -0.127906,   0.774828,  37.746752,   0.506504,   0.338607,   0.968326,  -0.183012, -75.000000, -157.500000, -220.500000,   0.988032, -90.420840, 122.063408,   0.335829,  -0.349011,  -0.617914,   0.619276, 
22052,  -0.254644,  -9.757306,  -0.136208,   0.654170,  37.693380,   0.452009,   0.342238,   0.980455,  -0.172528, -73.500000, -153.000000, -217.500000,   1.002307, -90.427208, 121.688240,   0.337755,  -0.351125,  -0.616755,   0.618178, 
22053,  -0.234812,  -9.822475,  -0.088892,   0.798590,  37.560360,   0.599187,   0.335758,   0.976294,  -0.153730, -76.500000, -153.000000, -211.500000,   1.009072, -90.428008, 121.313704,   0.339736,  -0.353179,  -0.615591,   0.617089, 
22054,  -0.243519,  -9.749469,  -0.067202,   0.774191,  37.780404,   0.515798,   0.325801,   0.958012,  -0.159606, -81.000000, -159.000000, -213.000000,   1.017388, -90.430496, 120.938176,   0.341709,  -0.355251,  -0.614427,   0.615993, 
22055,  -0.184138,  -9.799797,  -0.001154,   0.599072,  38.200556,   0.451710,   0.335400,   0.971858,  -0.154308, -76.500000, -154.500000, -211.500000,   1.021795, -90.430824, 120.560456,   0.343707,  -0.357294,  -0.613232,   0.614866, 
22056,  -0.243801,  -9.882939,  -0.038443,   0.852835,  38.792528,   0.550119,   0.341742,   0.980818,  -0.149263, -73.500000, -151.500000, -210.000000,   1.026662, -90.422120, 120.177048,   0.345762,  -0.359342,  -0.611969,   0.613771, 
22057,  -0.140080,  -9.755622,  -0.019681,   0.863905,  39.819552,   0.570421,   0.335930,   0.977108,  -0.158268, -76.500000, -153.000000, -213.000000,   1.029748, -90.414464, 119.785200,   0.347870,  -0.361429,  -0.610691,   0.612640, 
22058,  -0.258133,  -9.792485,  -0.065242,   0.789483,  40.888384,   0.609865,   0.344110,   0.976019,  -0.145627, -72.000000, -153.000000, -208.500000,   1.038643, -90.411808, 119.383376,   0.349978,  -0.363608,  -0.609380,   0.611461, 
22059,  -0.209986,  -9.721050,  -0.027261,   0.897707,  42.372572,   0.581341,   0.343581,   0.970769,  -0.141667, -72.000000, -154.500000, -207.000000,   1.044135, -90.403600, 118.968336,   0.352183,  -0.365812,  -0.607991,   0.610243, 
22060,  -0.257071,  -9.807917,   0.039148,   0.824463,  43.655856,   0.613004,   0.337972,   0.973487,  -0.135904, -75.000000, -153.000000, -205.500000,   1.052273, -90.383880, 118.540376,   0.354481,  -0.368064,  -0.606492,   0.609056, 
22061,  -0.332202,  -9.719025,   0.102845,   0.866070,  45.245712,   0.536306,   0.331663,   0.970141,  -0.121644, -78.000000, -153.000000, -201.000000,   1.068204, -90.366584, 118.097416,   0.356809,  -0.370441,  -0.604931,   0.607831, 
22062,  -0.348828,  -9.828041,   0.045270,   1.059539,  46.605220,   0.714409,   0.338176,   0.979915,  -0.121137, -75.000000, -150.000000, -201.000000,   1.088297, -90.349008, 117.639864,   0.359178,  -0.372898,  -0.603280,   0.606549, 
22063,  -0.261739,  -9.673761,   0.077434,   0.936953,  48.083556,   0.596209,   0.345015,   0.988511,  -0.139357, -72.000000, -148.500000, -207.000000,   1.105654, -90.328432, 117.167760,   0.361649,  -0.375406,  -0.601575,   0.605228, 
22064,  -0.323853,  -9.866729,  -0.107750,   1.076542,  49.112196,   0.797817,   0.338143,   0.974302,  -0.140442, -75.000000, -153.000000, -207.000000,   1.122757, -90.327656, 116.682632,   0.364126,  -0.378042,  -0.599929,   0.603759, 
22065,  -0.194523,  -9.716446,   0.005316,   1.084989,  50.058940,   0.772183,   0.342726,   0.966697,  -0.118980, -72.000000, -154.500000, -199.500000,   1.132060, -90.319040, 116.187944,   0.366703,  -0.380643,  -0.598206,   0.602248, 
22066,  -0.109968,  -9.773137,  -0.058878,   0.995805,  50.978340,   0.768195,   0.350720,   0.961987,  -0.111454, -67.500000, -156.000000, -196.500000,   1.130414, -90.315232, 115.683832,   0.369371,  -0.383251,  -0.596513,   0.600645, 
22067,  -0.231507,  -9.706201,  -0.022099,   0.922253,  51.856748,   0.871955,   0.352170,   0.982535,  -0.099492, -67.500000, -148.500000, -193.500000,   1.141204, -90.311792, 115.171512,   0.372011,  -0.385962,  -0.594744,   0.599046, 
22068,  -0.074068,  -9.845975,   0.050978,   1.123601,  52.354836,   0.948778,   0.354555,   0.980543,  -0.086203, -66.000000, -148.500000, -189.000000,   1.128088, -90.297400, 114.651744,   0.374837,  -0.388537,  -0.592950,   0.597376, 
22069,  -0.173010,  -9.703254,   0.171912,   0.838501,  52.923928,   0.776854,   0.347496,   0.962713,  -0.092402, -69.000000, -154.500000, -190.500000,   1.126258, -90.275264, 114.127272,   0.377656,  -0.391168,  -0.591062,   0.595768, 
22070,  -0.111785,  -9.864872,   0.126225,   1.178678,  53.263132,   0.772123,   0.338680,   0.968963,  -0.057936, -73.500000, -150.000000, -180.000000,   1.116186, -90.249408, 113.598024,   0.380544,  -0.393755,  -0.589148,   0.594116, 
22071,  -0.180415,  -9.777607,   0.132855,   1.096160,  52.950700,   0.910713,   0.340690,   0.959729,  -0.054877, -72.000000, -153.000000, -178.500000,   1.109676, -90.228536, 113.068408,   0.383390,  -0.396369,  -0.587234,   0.592433, 
22072,  -0.162262,  -9.769746,   0.208799,   1.064682,  52.503164,   0.548495,   0.340861,   0.960544,  -0.059415, -72.000000, -153.000000, -180.000000,   1.106833, -90.202832, 112.542736,   0.386214,  -0.398964,  -0.585296,   0.590799, 
22073,  -0.148513,  -9.892910,   0.101735,   1.035357,  51.989448,   0.779826,   0.343418,   0.959366,  -0.050664, -70.500000, -153.000000, -177.000000,   1.103734, -90.187272, 112.022200,   0.388959,  -0.401545,  -0.583401,   0.589099, 
22074,  -0.162869,  -9.774792,   0.098102,   1.180603,  51.127784,   0.695527,   0.351207,   0.948229,  -0.057905, -66.000000, -157.500000, -178.500000,   1.110865, -90.171928, 111.508096,   0.391616,  -0.404142,  -0.581491,   0.587452, 
22075,  -0.036484,  -9.622228,   0.156460,   0.763782,  50.584776,   0.821502,   0.347984,   0.948955,  -0.038854, -67.500000, -156.000000, -172.500000,   1.103576, -90.160696, 111.002056,   0.394288,  -0.406635,  -0.579675,   0.585755, 
22076,  -0.094236,  -9.928448,  -0.185293,   1.262197,  50.107320,   0.647352,   0.334072,   0.960367,  -0.012237, -75.000000, -150.000000, -165.000000,   1.095181, -90.160920, 110.499664,   0.396889,  -0.409126,  -0.577910,   0.583982, 
22077,   0.087104,  -9.631181,   0.252391,   0.752574,  49.436856,   0.740063,   0.330490,   0.956657,   0.006236, -76.500000, -150.000000, -159.000000,   1.068619, -90.130104, 110.004008,   0.399660,  -0.411384,  -0.576077,   0.582325, 
22078,  -0.017980,  -9.901169,  -0.049362,   1.282992,  49.135072,   0.723138,   0.347332,   0.951310,  -0.001399, -67.500000, -153.000000, -160.500000,   1.052159, -90.113664, 109.512624,   0.402298,  -0.413712,  -0.574286,   0.580634, 
22079,   0.189560,  -9.618043,   0.273230,   0.732970,  49.160220,   0.560873,   0.357678,   0.938995,   0.000109, -61.500000, -157.500000, -159.000000,   1.027963, -90.081392, 109.023096,   0.405011,  -0.415923,  -0.572433,   0.578980, 
22080,  -0.077424,  -9.958191,  -0.045123,   1.138267,  48.416520,   0.855761,   0.354625,   0.940535,   0.014623, -63.000000, -156.000000, -154.500000,   1.012587, -90.066880, 108.537600,   0.407594,  -0.418220,  -0.570653,   0.577281, 
22081,  -0.060770,  -9.658821,   0.185172,   0.938094,  48.208372,   0.650657,   0.349546,   0.948503,   0.016426, -66.000000, -153.000000, -154.500000,   1.002727, -90.045296, 108.056568,   0.410143,  -0.420486,  -0.568821,   0.575638, 
22082,  -0.215872,  -9.837984,  -0.052761,   1.100730,  48.117936,   0.433268,   0.352274,   0.948140,   0.020639, -64.500000, -153.000000, -153.000000,   1.001069, -90.043240, 107.576784,   0.412562,  -0.422845,  -0.567047,   0.573915, 
22083,  -0.172977,  -9.721263,   0.006063,   0.941739,  47.682764,   0.502111,   0.345076,   0.935108,   0.038282, -67.500000, -156.000000, -147.000000,   1.001600, -90.043216, 107.099376,   0.414950,  -0.425210,  -0.565283,   0.572198, 
22084,  -0.107669,  -9.858919,  -0.152887,   1.039937,  47.211656,   0.616664,   0.344189,   0.925423,   0.041665, -67.500000, -159.000000, -145.500000,   0.996930, -90.055552, 106.625744,   0.417288,  -0.427564,  -0.563599,   0.570399, 
22085,  -0.000027,  -9.687025,  -0.033935,   0.933854,  46.909588,   0.644941,   0.347428,   0.927503,   0.032266, -66.000000, -159.000000, -148.500000,   0.995984, -90.064408, 106.156592,   0.419588,  -0.429892,  -0.561886,   0.568634, 
22086,  -0.074334,  -9.855358,  -0.234079,   1.075805,  46.518356,   0.743989,   0.345451,   0.942350,   0.048512, -67.500000, -153.000000, -144.000000,   0.992513, -90.087224, 105.690712,   0.421831,  -0.432243,  -0.560264,   0.566804, 
22087,   0.077691,  -9.677140,  -0.115972,   0.892159,  46.171500,   0.674883,   0.348895,   0.950858,   0.053881, -66.000000, -150.000000, -142.500000,   0.980541, -90.101728, 105.228896,   0.424115,  -0.434492,  -0.558633,   0.564983, 
22088,  -0.003841,  -9.814798,  -0.271887,   0.852142,  45.593236,   0.646762,   0.351435,   0.946874,   0.052979, -64.500000, -151.500000, -142.500000,   0.964536, -90.127144, 104.771584,   0.426344,  -0.436731,  -0.557075,   0.563098, 
22089,   0.096516,  -9.661192,  -0.153591,   0.941952,  45.112360,   0.586990,   0.350222,   0.938366,   0.075089, -64.500000, -153.000000, -135.000000,   0.942508, -90.146224, 104.319744,   0.428599,  -0.438892,  -0.555530,   0.561241, 
22090,   0.118987,  -9.819098,  -0.134056,   0.867072,  44.462420,   0.444074,   0.344425,   0.937463,   0.075737, -67.500000, -153.000000, -135.000000,   0.915727, -90.160368, 103.873192,   0.430860,  -0.440978,  -0.553988,   0.559398, 
22091,   0.061794,  -9.787726,  -0.037674,   0.936445,  43.707488,   0.709920,   0.341698,   0.937826,   0.071524, -69.000000, -153.000000, -136.500000,   0.892668, -90.161504, 103.433808,   0.433106,  -0.442988,  -0.552382,   0.557643, 
22092,   0.112885,  -9.789894,   0.062442,   0.871873,  43.217216,   0.482924,   0.346640,   0.934657,   0.093563, -66.000000, -153.000000, -129.000000,   0.870226, -90.150000, 103.000880,   0.435366,  -0.444922,  -0.550738,   0.555975, 
22093,  -0.081368,  -9.866975,  -0.009877,   0.819085,  42.266884,   0.752656,   0.351393,   0.927866,   0.110488, -63.000000, -154.500000, -123.000000,   0.858284, -90.143392, 102.575200,   0.437516,  -0.446887,  -0.549102,   0.554346, 
22094,  -0.085337,  -9.704123,   0.130663,   0.885436,  41.980628,   0.469807,   0.341453,   0.912391,   0.114265, -67.500000, -159.000000, -121.500000,   0.851359, -90.125680, 102.156160,   0.439637,  -0.448786,  -0.547399,   0.552793, 
22095,  -0.177300,  -9.706559,   0.052664,   0.667935,  41.659828,   0.261543,   0.332929,   0.911851,   0.110699, -72.000000, -159.000000, -123.000000,   0.854753, -90.115344, 101.739992,   0.441667,  -0.450748,  -0.545703,   0.551255, 
22096,  -0.076082,  -9.814310,  -0.059965,   0.956905,  41.393396,   0.477566,   0.339630,   0.925246,   0.116321, -69.000000, -154.500000, -121.500000,   0.852906, -90.103416, 101.325976,   0.443718,  -0.452667,  -0.544028,   0.549713, 
22097,  -0.019510,  -9.754294,  -0.043568,   0.668658,  40.923236,   0.605285,   0.342202,   0.926875,   0.134725, -67.500000, -153.000000, -115.500000,   0.856152, -90.105736, 100.915560,   0.445654,  -0.454633,  -0.542396,   0.548117, 
22098,  -0.097254,  -9.870912,  -0.081998,   1.030633,  40.238992,   0.910422,   0.338979,   0.927601,   0.153776, -69.000000, -151.500000, -109.500000,   0.856050, -90.106736, 100.510656,   0.447583,  -0.456548,  -0.540789,   0.546531, 
22099,   0.008263,  -9.694175,  -0.019714,   0.861365,  39.570720,   0.618190,   0.330985,   0.932311,   0.146251, -73.500000, -150.000000, -112.500000,   0.848811, -90.111416, 100.111744,   0.449501,  -0.458415,  -0.539251,   0.544922, 
22100,  -0.148089,  -9.764862,  -0.117714,   0.692187,  38.929672,   0.430878,   0.330252,   0.920633,   0.135443, -73.500000, -154.500000, -115.500000,   0.845662, -90.117960,  99.720848,   0.451349,  -0.460265,  -0.537731,   0.543346, 
22101,  -0.043335,  -9.783028,  -0.111044,   0.974621,  37.968408,   0.451723,   0.334476,   0.908593,   0.156328, -70.500000, -157.500000, -108.000000,   0.831270, -90.121472,  99.338000,   0.453210,  -0.462000,  -0.536258,   0.541755, 
22102,  -0.070226,  -9.715076,  -0.048641,   0.486602,  37.230692,   0.354913,   0.341348,   0.922802,   0.157412, -67.500000, -153.000000, -108.000000,   0.832475, -90.126968,  98.963224,   0.454951,  -0.463779,  -0.534765,   0.540249, 
22103,   0.004585,  -9.911181,  -0.257135,   1.096871,  36.474808,   0.678919,   0.335910,   0.926335,   0.158638, -70.500000, -151.500000, -108.000000,   0.819888, -90.141472,  98.595368,   0.456688,  -0.465497,  -0.533398,   0.538673, 
22104,  -0.032282,  -9.612888,  -0.107895,   0.571566,  36.288100,   0.460944,   0.331594,   0.910948,   0.166304, -72.000000, -156.000000, -105.000000,   0.825592, -90.156328,  98.233712,   0.458297,  -0.467263,  -0.531971,   0.537181, 
22105,  -0.104724,  -9.843957,  -0.260265,   0.910841,  35.869476,   0.509462,   0.329226,   0.915746,   0.162668, -73.500000, -154.500000, -106.500000,   0.824500, -90.178344,  97.874312,   0.459890,  -0.469008,  -0.530605,   0.535630, 
22106,  -0.199261,  -9.699049,  -0.123953,   0.599938,  35.673964,   0.406831,   0.332328,   0.922625,   0.177112, -72.000000, -151.500000, -102.000000,   0.831134, -90.192928,  97.517824,   0.461464,  -0.470746,  -0.529185,   0.534156, 
22107,  -0.113044,  -9.848273,  -0.144658,   0.715772,  35.219724,   0.347818,   0.328933,   0.922537,   0.200701, -73.500000, -150.000000, -94.500000,   0.834294, -90.204728,  97.164472,   0.463050,  -0.472442,  -0.527778,   0.532695, 
22108,  -0.139944,  -9.682196,  -0.101073,   0.679717,  35.060064,   0.422911,   0.330568,   0.906061,   0.193529, -72.000000, -156.000000, -96.000000,   0.843308, -90.217168,  96.814744,   0.464579,  -0.474141,  -0.526352,   0.531257, 
22109,  -0.093479,  -9.876158,  -0.129186,   0.824440,  34.935280,   0.439694,   0.326612,   0.895109,   0.201773, -73.500000, -159.000000, -93.000000,   0.849617, -90.223736,  96.466208,   0.466132,  -0.475791,  -0.524908,   0.529832, 
22110,  -0.184330,  -9.778397,  -0.069010,   0.429767,  35.017648,   0.715304,   0.324601,   0.904343,   0.198715, -75.000000, -156.000000, -94.500000,   0.859550, -90.233496,  96.117792,   0.467654,  -0.477470,  -0.523463,   0.528409, 
22111,  -0.179638,  -9.767040,  -0.077754,   0.829377,  35.629160,   0.447242,   0.325831,   0.915658,   0.186257, -75.000000, -153.000000, -99.000000,   0.868598, -90.239304,  95.765848,   0.469214,  -0.479145,  -0.521988,   0.526986, 
22112,  -0.249402,  -9.785103,  -0.134418,   0.666754,  36.358968,   0.445846,   0.324009,   0.928513,   0.188314, -76.500000, -148.500000, -99.000000,   0.876760, -90.255472,  95.407448,   0.470752,  -0.480877,  -0.520525,   0.525475, 
22113,  -0.215109,  -9.875748,  -0.013043,   0.949973,  36.996184,   0.318139,   0.322779,   0.917198,   0.200771, -76.500000, -151.500000, -94.500000,   0.879679, -90.254096,  95.041880,   0.472415,  -0.482539,  -0.518965,   0.523984, 
22114,  -0.277832,  -9.730264,  -0.009477,   0.464797,  37.612716,   0.248322,   0.319180,   0.910682,   0.209593, -78.000000, -153.000000, -91.500000,   0.889349, -90.260144,  94.670536,   0.474041,  -0.484287,  -0.517387,   0.522464, 
22115,  -0.249240,  -9.809362,  -0.047876,   0.983157,  38.039956,   0.337049,   0.321891,   0.907513,   0.204154, -76.500000, -154.500000, -93.000000,   0.899410, -90.257040,  94.294080,   0.475729,  -0.486023,  -0.515743,   0.520967, 
22116,  -0.183443,  -9.783250,  -0.003498,   0.851442,  38.547172,   0.504163,   0.317388,   0.888505,   0.206705, -78.000000, -160.500000, -91.500000,   0.908285, -90.251224,  93.912192,   0.477442,  -0.487750,  -0.514052,   0.519437, 
22117,  -0.252181,  -9.796889,   0.030274,   0.825263,  39.084940,   0.508594,   0.317046,   0.886876,   0.215780, -78.000000, -160.500000, -88.500000,   0.924697, -90.235584,  93.526160,   0.479179,  -0.489484,  -0.512263,   0.517962, 
22118,  -0.260007,  -9.730400,   0.025474,   0.776293,  39.623456,   0.452834,   0.320490,   0.895384,   0.221149, -76.500000, -157.500000, -87.000000,   0.940158, -90.222888,  93.134512,   0.480934,  -0.491251,  -0.510467,   0.516446, 
22119,  -0.217418,  -9.799068,  -0.003566,   0.930476,  40.444212,   0.402392,   0.329200,   0.899545,   0.229829, -72.000000, -156.000000, -84.000000,   0.948695, -90.210592,  92.736000,   0.482747,  -0.493014,  -0.508669,   0.514866, 
22120,  -0.185437,  -9.753589,  -0.060739,   0.611583,  41.207344,   0.470457,   0.325977,   0.900271,   0.248881, -73.500000, -154.500000, -78.000000,   0.956812, -90.216192,  92.329624,   0.484502,  -0.494867,  -0.506901,   0.513154, 
22121,  -0.173959,  -9.737040,  -0.122806,   0.922497,  41.946376,   0.359369,   0.315819,   0.916207,   0.252487, -79.500000, -148.500000, -78.000000,   0.959767, -90.220288,  91.915296,   0.486323,  -0.496727,  -0.505113,   0.511393, 
22122,  -0.042040,  -9.791837,  -0.143500,   0.926153,  42.620908,   0.446819,   0.312546,   0.908513,   0.242581, -81.000000, -151.500000, -81.000000,   0.951641, -90.232384,  91.493592,   0.488192,  -0.498605,  -0.503377,   0.509518, 
22123,  -0.064333,  -9.775792,  -0.142999,   0.861726,  42.769488,   0.481627,   0.308264,   0.898739,   0.269552, -82.500000, -153.000000, -72.000000,   0.946336, -90.244072,  91.068056,   0.490048,  -0.500493,  -0.501592,   0.507623, 
22124,   0.034767,  -9.750241,  -0.116932,   1.014318,  42.861132,   0.495573,   0.312066,   0.911683,   0.275499, -81.000000, -148.500000, -70.500000,   0.932584, -90.247096,  90.641048,   0.491982,  -0.502309,  -0.499794,   0.505718, 
22125,  -0.118875,  -9.748405,  -0.063649,   0.874906,  42.588480,   0.656483,   0.316411,   0.892037,   0.262888, -78.000000, -156.000000, -73.500000,   0.931023, -90.246992,  90.215144,   0.493869,  -0.504160,  -0.497935,   0.503884, 
22126,  -0.115173,  -9.805953,  -0.018940,   1.043185,  42.291296,   0.407440,   0.319513,   0.898916,   0.277331, -76.500000, -153.000000, -69.000000,   0.923258, -90.237864,  89.791472,   0.495804,  -0.505925,  -0.496062,   0.502061, 
22127,  -0.123300,  -9.753400,   0.089494,   0.777865,  42.010680,   0.498165,   0.317895,   0.918199,   0.294156, -78.000000, -145.500000, -64.500000,   0.917720, -90.222824,  89.371456,   0.497727,  -0.507646,  -0.494158,   0.500277, 
22128,  -0.168131,  -9.795809,   0.043229,   0.965300,  42.210832,   0.292015,   0.316461,   0.900457,   0.291845, -78.000000, -151.500000, -64.500000,   0.918802, -90.207304,  88.952136,   0.499621,  -0.509391,  -0.492228,   0.498526, 
22129,  -0.181183,  -9.747321,   0.054968,   0.810746,  42.239656,   0.448444,   0.303468,   0.886522,   0.310136, -84.000000, -154.500000, -58.500000,   0.925545, -90.191616,  88.532128,   0.501492,  -0.511158,  -0.490265,   0.496794, 
22130,  -0.241141,  -9.766578,   0.053918,   0.915809,  42.424676,   0.338783,   0.298576,   0.898111,   0.317055, -87.000000, -150.000000, -57.000000,   0.939518, -90.178064,  88.110664,   0.503309,  -0.512950,  -0.488255,   0.495059, 
22131,  -0.345695,  -9.772821,   0.003364,   0.924477,  42.184720,   0.580232,   0.315435,   0.895570,   0.319071, -78.000000, -151.500000, -55.500000,   0.959263, -90.167240,  87.689712,   0.505088,  -0.514777,  -0.486232,   0.493340, 
22132,  -0.389129,  -9.770680,   0.040419,   0.982096,  42.184456,   0.361355,   0.311494,   0.887425,   0.336967, -79.500000, -153.000000, -49.500000,   0.984717, -90.154272,  87.270016,   0.506847,  -0.516611,  -0.484180,   0.491662, 
22133,  -0.483423,  -9.734950,  -0.007603,   0.723343,  42.650632,   0.369687,   0.303705,   0.898562,   0.344209, -84.000000, -148.500000, -48.000000,   1.021925, -90.149504,  86.847776,   0.508513,  -0.518522,  -0.482081,   0.489972, 
22134,  -0.352479,  -9.785530,   0.001731,   1.067855,  43.056468,   0.447416,   0.303705,   0.898562,   0.344209, -84.000000, -148.500000, -48.000000,   1.049362, -90.140656,  86.420968,   0.510256,  -0.520387,  -0.479982,   0.488233, 
22135,  -0.388186,  -9.767880,  -0.019506,   0.763971,  43.711268,   0.597850,   0.302613,   0.882449,   0.332824, -84.000000, -154.500000, -51.000000,   1.084401, -90.138600,  85.988352,   0.511961,  -0.522338,  -0.477851,   0.486473, 
22136,  -0.276798,  -9.795198,  -0.048465,   1.115721,  44.453852,   0.620720,   0.294465,   0.889151,   0.339488, -88.500000, -151.500000, -49.500000,   1.113317, -90.132928,  85.548720,   0.513727,  -0.524262,  -0.475688,   0.484659, 
22137,  -0.399349,  -9.773936,  -0.093036,   1.096287,  45.103556,   0.675564,   0.285446,   0.888974,   0.359188, -93.000000, -150.000000, -43.500000,   1.141207, -90.141056,  85.101776,   0.515455,  -0.526260,  -0.473542,   0.482740, 
22138,  -0.422464,  -9.790161,   0.102714,   0.967567,  45.947948,   0.480277,   0.298860,   0.877925,   0.355835, -85.500000, -154.500000, -43.500000,   1.167738, -90.128184,  84.647856,   0.517315,  -0.528187,  -0.471282,   0.480872, 
22139,  -0.410186,  -9.803061,   0.020764,   1.018944,  46.792640,   0.426227,   0.298672,   0.874304,   0.350720, -85.500000, -156.000000, -45.000000,   1.185438, -90.124432,  84.185536,   0.519196,  -0.530142,  -0.469052,   0.478878, 
22140,  -0.369758,  -9.694613,   0.086057,   0.900596,  47.833164,   0.321568,   0.289995,   0.875756,   0.361345, -90.000000, -154.500000, -42.000000,   1.210028, -90.117648,  83.714840,   0.521083,  -0.532128,  -0.466724,   0.476877, 
22141,  -0.319923,  -9.842184,  -0.109605,   1.104577,  48.536904,   0.606110,   0.293268,   0.883450,   0.371251, -88.500000, -151.500000, -39.000000,   1.233756, -90.120216,  83.234856,   0.522970,  -0.534191,  -0.464395,   0.474792, 
22142,  -0.378827,  -9.750627,   0.038148,   1.164721,  49.426848,   0.709614,   0.293626,   0.887885,   0.371828, -88.500000, -150.000000, -39.000000,   1.263227, -90.113992,  82.746136,   0.524899,  -0.536258,  -0.461950,   0.472719, 
22143,  -0.433801,  -9.785124,  -0.039595,   1.054303,  50.405224,   0.630047,   0.289857,   0.880555,   0.385187, -90.000000, -151.500000, -34.500000,   1.298957, -90.113960,  82.248456,   0.526796,  -0.538398,  -0.459446,   0.470597, 
22144,  -0.412895,  -9.715996,  -0.078934,   1.349232,  51.578928,   0.662852,   0.281179,   0.882007,   0.395812, -94.500000, -150.000000, -31.500000,   1.324945, -90.114616,  81.739784,   0.528777,  -0.540545,  -0.456937,   0.468376, 
22145,  -0.506855,  -9.681951,  -0.068398,   0.956811,  52.672884,   0.442986,   0.280120,   0.871507,   0.403732, -94.500000, -153.000000, -28.500000,   1.363914, -90.122472,  81.220248,   0.530697,  -0.542800,  -0.454328,   0.466122, 
22146,  -0.416233,  -9.800192,  -0.237180,   1.348026,  54.051576,   0.593631,   0.273607,   0.861733,   0.403225, -97.500000, -156.000000, -28.500000,   1.384921, -90.142576,  80.687408,   0.532675,  -0.545081,  -0.451779,   0.463666, 
22147,  -0.392908,  -9.700656,  -0.108872,   0.984075,  55.457932,   0.597202,   0.269074,   0.877757,   0.410720, -100.500000, -150.000000, -27.000000,   1.417758, -90.159680,  80.141048,   0.534675,  -0.547446,  -0.449095,   0.461216, 
22148,  -0.490733,  -9.887825,  -0.297992,   1.564648,  56.908168,   0.907858,   0.271460,   0.875765,   0.424009, -99.000000, -150.000000, -22.500000,   1.443962, -90.185200,  79.579680,   0.536690,  -0.549850,  -0.446376,   0.458605, 
22149,  -0.297925,  -9.641617,   0.030563,   1.006695,  58.625016,   0.653720,   0.272769,   0.860467,   0.435565, -97.500000, -154.500000, -18.000000,   1.471530, -90.194536,  79.003400,   0.538837,  -0.552241,  -0.443512,   0.455997, 
22150,  -0.457763,  -9.912974,  -0.192714,   1.422840,  59.932876,   0.881708,   0.263733,   0.857483,   0.445612, -102.000000, -154.500000, -15.000000,   1.489025, -90.204584,  78.412376,   0.541062,  -0.554633,  -0.440611,   0.453254, 
22151,  -0.234035,  -9.583600,   0.152653,   1.070233,  61.587388,   0.707052,   0.261552,   0.865903,   0.447091, -103.500000, -151.500000, -15.000000,   1.504477, -90.192544,  77.806280,   0.543447,  -0.556956,  -0.437548,   0.450504, 
22152,  -0.380536,  -9.910960,  -0.171481,   1.623591,  62.849660,   0.779089,   0.270230,   0.864451,   0.436467, -99.000000, -153.000000, -18.000000,   1.514325, -90.196432,  77.185328,   0.545828,  -0.559379,  -0.434495,   0.447589, 
22153,  -0.072872,  -9.610806,   0.131409,   1.111935,  64.069168,   0.708090,   0.266989,   0.862370,   0.445866, -100.500000, -153.000000, -15.000000,   1.514381, -90.184120,  76.552128,   0.548347,  -0.561707,  -0.431345,   0.444608, 
22154,  -0.274736,  -9.938042,  -0.140613,   1.555196,  64.638428,   0.897145,   0.254713,   0.857306,   0.465311, -106.500000, -153.000000,  -9.000000,   1.518294, -90.188904,  75.909960,   0.550800,  -0.564162,  -0.428196,   0.441537, 
22155,  -0.076535,  -9.627919,   0.126649,   1.158308,  65.297004,   0.773929,   0.271230,   0.853136,   0.476402, -97.500000, -154.500000,  -4.500000,   1.518434, -90.179648,  75.261936,   0.553324,  -0.566521,  -0.424956,   0.438442, 
22156,  -0.263366,  -9.890669,  -0.217807,   1.658402,  65.509560,   0.818027,   0.256227,   0.848435,   0.491635, -105.000000, -154.500000,   0.000000,   1.520973, -90.192120,  74.609208,   0.555749,  -0.569010,  -0.421763,   0.435256, 
22157,  -0.119679,  -9.572652,   0.053775,   1.249756,  65.847932,   0.697696,   0.239914,   0.859033,   0.495311, -114.000000, -150.000000,   0.000000,   1.517031, -90.185192,  73.953368,   0.558273,  -0.571359,  -0.418487,   0.432068, 
22158,  -0.365027,  -9.916952,  -0.161927,   1.556368,  66.479372,   0.808025,   0.241599,   0.850976,   0.517097, -112.500000, -151.500000,   7.500000,   1.531753, -90.191768,  73.293696,   0.560668,  -0.573849,  -0.415146,   0.428900, 
22159,  -0.105198,  -9.671983,   0.050864,   1.416332,  67.066360,   0.721178,   0.235102,   0.844009,   0.526243, -115.500000, -153.000000,  10.500000,   1.530248, -90.190680,  72.627704,   0.563157,  -0.576236,  -0.411803,   0.425627, 
22160,  -0.345234,  -9.891081,  -0.135204,   1.335519,  67.591792,   0.799247,   0.221392,   0.821203,   0.543379, -121.500000, -159.000000,  16.500000,   1.540960, -90.204880,  71.955288,   0.565537,  -0.578754,  -0.408416,   0.422320, 
22161,  -0.172035,  -9.663926,  -0.004513,   1.469842,  68.124488,   0.653538,   0.224478,   0.825275,   0.548170, -120.000000, -157.500000,  18.000000,   1.537069, -90.208088,  71.277520,   0.568019,  -0.581158,  -0.405015,   0.418934, 
22162,  -0.275113,  -9.785564,  -0.148184,   1.370294,  68.508088,   0.824612,   0.227859,   0.863203,   0.539177, -120.000000, -145.500000,  13.500000,   1.545166, -90.229632,  70.595960,   0.570364,  -0.583694,  -0.401589,   0.415515, 
22163,  -0.168799,  -9.733079,  -0.003945,   1.543289,  68.623000,   0.758936,   0.212839,   0.855695,   0.544757, -127.500000, -147.000000,  15.000000,   1.541795, -90.223992,  69.911696,   0.572874,  -0.586040,  -0.398092,   0.412103, 
22164,  -0.220474,  -9.803683,  -0.056313,   1.272012,  68.988624,   0.814661,   0.210876,   0.832703,   0.546408, -127.500000, -154.500000,  16.500000,   1.549351, -90.229072,  69.224784,   0.575282,  -0.588469,  -0.394552,   0.408683, 
22165,  -0.119161,  -9.756909,  -0.008313,   1.642701,  69.139176,   0.847528,   0.205438,   0.836236,   0.547633, -130.500000, -153.000000,  16.500000,   1.546573, -90.223192,  68.535312,   0.577770,  -0.590792,  -0.390998,   0.405220, 
22166,  -0.205399,  -9.822277,   0.022212,   1.299333,  69.362880,   0.951189,   0.200547,   0.847825,   0.554551, -133.500000, -148.500000,  18.000000,   1.546565, -90.226784,  67.843904,   0.580186,  -0.593159,  -0.387439,   0.401714, 
22167,  -0.150416,  -9.743260,   0.028643,   1.689990,  69.583984,   0.873358,   0.196264,   0.838051,   0.581523, -135.000000, -150.000000,  27.000000,   1.531638, -90.221456,  67.150272,   0.582687,  -0.595417,  -0.383900,   0.398137, 
22168,  -0.235145,  -9.741929,   0.097586,   1.290387,  69.978976,   0.815053,   0.189084,   0.827825,   0.608818, -138.000000, -151.500000,  36.000000,   1.529410, -90.214384,  66.454660,   0.585138,  -0.597693,  -0.380266,   0.394604, 
22169,  -0.064173,  -9.766041,   0.014516,   1.776441,  70.472176,   0.646408,   0.191469,   0.825833,   0.622107, -136.500000, -151.500000,  40.500000,   1.509802, -90.204920,  65.754060,   0.587657,  -0.599895,  -0.376675,   0.390951, 
22170,  -0.227288,  -9.754895,  -0.008855,   1.162111,  70.904488,   0.830083,   0.201238,   0.840494,   0.622867, -132.000000, -147.000000,  40.500000,   1.517353, -90.209768,  65.048652,   0.590001,  -0.602251,  -0.372952,   0.387348, 
22171,  -0.068650,  -9.764117,  -0.055745,   1.886990,  71.292136,   1.001609,   0.198716,   0.847285,   0.633421, -133.500000, -144.000000,  43.500000,   1.504276, -90.199808,  64.339716,   0.592483,  -0.604454,  -0.369255,   0.383656, 
22172,  -0.187929,  -9.834973,   0.032301,   1.141259,  71.917664,   1.025781,   0.186407,   0.836608,   0.633562, -139.500000, -147.000000,  43.500000,   1.511048, -90.212888,  63.624916,   0.594773,  -0.606835,  -0.365484,   0.379946, 
22173,  -0.093985,  -9.837200,  -0.104377,   2.024797,  72.217408,   1.089190,   0.168302,   0.825028,   0.634351, -148.500000, -150.000000,  43.500000,   1.490059, -90.213448,  62.905208,   0.597214,  -0.609055,  -0.361779,   0.376091, 
22174,  -0.084041,  -9.717761,   0.046794,   0.981721,  72.747728,   0.914996,   0.160153,   0.831730,   0.641016, -153.000000, -147.000000,  45.000000,   1.478444, -90.232656,  62.181292,   0.599514,  -0.611394,  -0.358049,   0.372191, 
22175,  -0.059058,  -9.852011,  -0.160192,   2.089076,  72.589416,   0.800607,   0.165762,   0.829012,   0.635252, -150.000000, -148.500000,  43.500000,   1.443998, -90.238504,  61.455088,   0.601940,  -0.613575,  -0.354369,   0.368184, 
22176,   0.098468,  -9.707055,   0.106916,   0.972073,  72.533944,   0.856940,   0.158736,   0.816794,   0.648358, -153.000000, -151.500000,  48.000000,   1.417819, -90.241968,  60.730476,   0.604324,  -0.615745,  -0.350635,   0.364223, 
22177,   0.111561,  -9.828012,  -0.091035,   1.974002,  72.270272,   0.967728,   0.155154,   0.813085,   0.666832, -154.500000, -151.500000,  54.000000,   1.381710, -90.241088,  60.007972,   0.606723,  -0.617827,  -0.346935,   0.360214, 
22178,   0.132004,  -9.689905,   0.132883,   1.204435,  72.106560,   0.882850,   0.151743,   0.810190,   0.680768, -156.000000, -151.500000,  58.500000,   1.356053, -90.235744,  59.287544,   0.609089,  -0.619894,  -0.343168,   0.356273, 
22179,  -0.106650,  -9.876689,  -0.132826,   1.892119,  71.817152,   1.037102,   0.140526,   0.815626,   0.692294, -162.000000, -148.500000,  61.500000,   1.337137, -90.238056,  58.569632,   0.611350,  -0.621983,  -0.339384,   0.352339, 
22180,  -0.007288,  -9.619515,   0.152876,   1.198199,  71.457648,   0.778421,   0.135276,   0.822779,   0.698635, -165.000000, -145.500000,  63.000000,   1.319802, -90.219592,  57.855044,   0.613693,  -0.623943,  -0.335539,   0.348484, 
22181,  -0.058180,  -9.863943,  -0.101177,   1.756602,  71.104808,   0.840191,   0.126257,   0.822602,   0.718335, -169.500000, -144.000000,  69.000000,   1.299223, -90.218800,  57.144212,   0.615904,  -0.625943,  -0.331769,   0.344558, 
22182,   0.010504,  -9.698866,   0.131971,   1.281961,  70.650488,   0.695380,   0.120477,   0.824506,   0.728635, -172.500000, -142.500000,  72.000000,   1.282999, -90.206840,  56.437272,   0.618137,  -0.627872,  -0.327957,   0.340701, 
22183,  -0.110985,  -9.941255,  -0.040247,   1.619490,  70.296560,   1.024489,   0.122625,   0.810473,   0.707851, -171.000000, -148.500000,  66.000000,   1.268826, -90.205352,  55.733592,   0.620261,  -0.629820,  -0.324165,   0.336823, 
22184,   0.011659,  -9.621561,   0.081147,   1.414059,  70.136888,   0.826957,   0.125319,   0.804497,   0.692760, -169.500000, -151.500000,  61.500000,   1.255522, -90.201264,  55.032716,   0.622377,  -0.631738,  -0.320371,   0.332965, 
22185,  -0.128378,  -9.892586,  -0.116474,   1.735951,  69.895368,   0.905506,   0.125523,   0.810925,   0.707527, -169.500000, -148.500000,  66.000000,   1.247644, -90.200264,  54.333792,   0.624419,  -0.633647,  -0.316549,   0.329119, 
22186,  -0.008420,  -9.574537,  -0.022314,   1.305157,  69.915272,   0.736725,   0.115803,   0.804683,   0.735724, -174.000000, -148.500000,  75.000000,   1.231729, -90.201480,  53.635920,   0.626455,  -0.635531,  -0.312778,   0.325222, 
22187,  -0.146705,  -9.762431,  -0.157243,   1.577886,  69.503192,   0.679223,   0.102047,   0.814103,   0.748151, -181.500000, -144.000000,  78.000000,   1.222735, -90.204392,  52.940360,   0.628421,  -0.637404,  -0.308970,   0.321354, 
22188,   0.134308,  -9.703468,   0.077284,   1.304532,  69.085184,   0.768386,   0.096405,   0.811208,   0.734609, -184.500000, -145.500000,  73.500000,   1.194954, -90.188800,  52.249236,   0.630516,  -0.639101,  -0.305234,   0.317448, 
22189,   0.154919,  -9.838378,  -0.013998,   1.382972,  68.072752,   0.938859,   0.092089,   0.795821,   0.742276, -186.000000, -150.000000,  76.500000,   1.163965, -90.186416,  51.565204,   0.632493,  -0.640812,  -0.301577,   0.313511, 
22190,   0.268104,  -9.698731,   0.063071,   1.463765,  66.673484,   0.843331,   0.082353,   0.786773,   0.760821, -190.500000, -151.500000,  82.500000,   1.126194, -90.174464,  50.893344,   0.634493,  -0.642408,  -0.297995,   0.309620, 
22191,   0.173937,  -9.797584,  -0.066353,   1.414054,  65.137160,   0.947966,   0.073129,   0.780169,   0.765753, -195.000000, -153.000000,  84.000000,   1.082538, -90.177032,  50.235504,   0.636359,  -0.644008,  -0.294552,   0.305721, 
22192,   0.040301,  -9.736215,   0.095971,   1.337849,  63.953092,   0.723988,   0.071307,   0.793024,   0.767809, -196.500000, -148.500000,  84.000000,   1.059367, -90.164008,  49.590912,   0.638203,  -0.645523,  -0.291021,   0.302040, 
22193,   0.080291,  -9.802912,  -0.173874,   1.454168,  63.053728,   0.598086,   0.080734,   0.806056,   0.777645, -192.000000, -144.000000,  87.000000,   1.022098, -90.175168,  48.957112,   0.639900,  -0.647093,  -0.287686,   0.298270, 
22194,   0.010883,  -9.656944,  -0.026751,   1.147838,  62.476424,   0.636673,   0.068971,   0.803435,   0.783478, -198.000000, -144.000000,  88.500000,   0.999170, -90.182384,  48.331164,   0.641533,  -0.648634,  -0.284293,   0.294621, 
22195,   0.038975,  -9.770890,  -0.144062,   1.236435,  61.870940,   0.565970,   0.063534,   0.806968,   0.784704, -201.000000, -142.500000,  88.500000,   0.983759, -90.193264,  47.711372,   0.643102,  -0.650193,  -0.280898,   0.291037, 
22196,  -0.001780,  -9.749246,  -0.254712,   1.297556,  61.142488,   0.788681,   0.062833,   0.800903,   0.793201, -201.000000, -144.000000,  91.500000,   0.971252, -90.209264,  47.097520,   0.644583,  -0.651739,  -0.277518,   0.287474, 
22197,   0.022765,  -9.740511,  -0.238588,   1.273063,  60.404272,   0.801404,   0.056679,   0.795565,   0.793271, -204.000000, -145.500000,  91.500000,   0.955991, -90.230520,  46.490804,   0.646022,  -0.653292,  -0.274207,   0.283924, 
22198,  -0.055821,  -9.740815,  -0.220879,   1.310594,  59.861692,   0.826989,   0.051771,   0.804347,   0.790537, -207.000000, -142.500000,  90.000000,   0.948539, -90.248360,  45.890448,   0.647408,  -0.654793,  -0.270863,   0.280447, 
22199,  -0.109151,  -9.834270,  -0.059045,   1.243763,  59.176720,   0.796678,   0.035709,   0.789146,   0.813689, -214.500000, -145.500000,  97.500000,   0.940837, -90.253088,  45.296632,   0.648847,  -0.656200,  -0.267522,   0.277035, 
22200,  -0.101731,  -9.815589,   0.047842,   1.164243,  58.936296,   0.713204,   0.028854,   0.777743,   0.822258, -217.500000, -148.500000, 100.500000,   0.943357, -90.249536,  44.707436,   0.650277,  -0.657553,  -0.264122,   0.273718, 
22201,  -0.200722,  -9.759298,  -0.135218,   1.328747,  59.115104,   0.961875,   0.035521,   0.785525,   0.808575, -214.500000, -147.000000,  96.000000,   0.947844, -90.255168,  44.118668,   0.651629,  -0.658940,  -0.260726,   0.270385, 
22202,  -0.205490,  -9.829354,   0.050010,   1.007138,  59.550516,   0.722386,   0.038044,   0.778735,   0.798020, -213.000000, -150.000000,  93.000000,   0.961729, -90.249128,  43.526940,   0.653028,  -0.660284,  -0.257230,   0.267113, 
22203,  -0.476636,  -9.796610,  -0.124906,   1.313356,  60.146504,   0.858189,   0.021031,   0.783268,   0.810195, -222.000000, -147.000000,  96.000000,   0.997942, -90.250848,  42.930144,   0.654307,  -0.661694,  -0.253580,   0.263908, 
22204,  -0.474945,  -9.690863,  -0.112428,   1.135657,  61.258156,   0.719329,   0.010002,   0.792325,   0.826836, -228.000000, -142.500000, 100.500000,   1.044719, -90.256264,  42.324036,   0.655564,  -0.663168,  -0.249823,   0.260704, 
22205,  -0.644600,  -9.847886,  -0.148619,   1.446299,  62.289672,   0.784592,   0.013834,   0.770236,   0.827837, -225.000000, -150.000000, 102.000000,   1.112635, -90.260128,  41.707852,   0.656775,  -0.664663,  -0.245868,   0.257556, 
22206,  -0.576496,  -9.729227,  -0.233015,   1.149903,  62.717548,   0.823741,   0.001371,   0.761551,   0.842169, -231.000000, -151.500000, 106.500000,   1.173515, -90.268128,  41.083720,   0.657990,  -0.666170,  -0.241911,   0.254311, 
22207,  -0.566372,  -9.772594,  -0.132641,   1.304825,  62.780272,   0.983215,  -0.002990,   0.778390,   0.845127, -234.000000, -145.500000, 106.500000,   1.228729, -90.273496,  40.457000,   0.659219,  -0.667629,  -0.237956,   0.251017, 
22208,  -0.518511,  -9.762799,  -0.102179,   1.384457,  62.148488,   0.981570,  -0.006247,   0.773503,   0.844873, -235.500000, -147.000000, 106.500000,   1.274873, -90.270664,  39.833324,   0.660491,  -0.668991,  -0.234044,   0.247698, 
22209,  -0.302542,  -9.831894,   0.039252,   1.218975,  61.027500,   0.881505,  -0.014052,   0.781834,   0.842462, -240.000000, -144.000000, 105.000000,   1.301229, -90.263200,  39.218684,   0.661805,  -0.670254,  -0.230286,   0.244322, 
22210,  -0.392682,  -9.773006,   0.027997,   1.281022,  59.488504,   0.898360,  -0.016967,   0.778576,   0.833134, -241.500000, -145.500000, 102.000000,   1.327965, -90.256040,  38.617372,   0.663057,  -0.671457,  -0.226592,   0.241013, 
22211,  -0.291294,  -9.717101,  -0.067405,   1.257736,  57.984700,   0.801762,  -0.021112,   0.764003,   0.836263, -243.000000, -150.000000, 103.500000,   1.339292, -90.253712,  38.031360,   0.664281,  -0.672627,  -0.223088,   0.237694, 
22212,  -0.375205,  -9.836971,   0.067035,   1.111455,  56.196408,   0.681349,  -0.027420,   0.760657,   0.850523, -246.000000, -150.000000, 108.000000,   1.345323, -90.247480,  37.462088,   0.665469,  -0.673693,  -0.219693,   0.234435, 
22213,  -0.337673,  -9.795099,   0.030753,   1.111517,  54.434164,   0.502091,  -0.033184,   0.765367,   0.870476, -249.000000, -147.000000, 114.000000,   1.351238, -90.243160,  36.909808,   0.666607,  -0.674732,  -0.216401,   0.231268, 
22214,  -0.340009,  -9.751766,  -0.068972,   1.207796,  52.895436,   0.588952,  -0.032450,   0.777044,   0.881284, -249.000000, -142.500000, 117.000000,   1.355454, -90.244816,  36.374136,   0.667667,  -0.675757,  -0.213224,   0.228173, 
22215,  -0.239516,  -9.797064,  -0.079467,   0.958696,  51.161672,   0.651136,  -0.030098,   0.769439,   0.875268, -247.500000, -145.500000, 115.500000,   1.355031, -90.246592,  35.855488,   0.668676,  -0.676718,  -0.210167,   0.225140, 
22216,  -0.217765,  -9.824790,  -0.152504,   1.087964,  49.480396,   0.709719,  -0.042220,   0.762383,   0.880524, -253.500000, -147.000000, 117.000000,   1.355889, -90.263928,  35.353060,   0.669559,  -0.677742,  -0.207228,   0.222182, 
22217,   0.014363,  -9.751348,  -0.111773,   0.924568,  47.701128,   0.606684,  -0.050572,   0.762658,   0.872420, -258.000000, -147.000000, 114.000000,   1.333393, -90.277040,  34.868844,   0.670454,  -0.678646,  -0.204519,   0.219194, 
22218,  -0.138699,  -9.835740,  -0.156053,   0.857242,  46.118336,   0.699662,  -0.054016,   0.754150,   0.867052, -259.500000, -150.000000, 112.500000,   1.329832, -90.299720,  34.400720,   0.671211,  -0.679597,  -0.201808,   0.216391, 
22219,  -0.093034,  -9.777583,  -0.388198,   1.161869,  44.773844,   0.592102,  -0.059641,   0.754061,   0.863163, -262.500000, -150.000000, 111.000000,   1.309686, -90.333872,  33.947268,   0.671902,  -0.680561,  -0.199301,   0.213557, 
22220,  -0.104497,  -9.697377,  -0.276098,   0.603142,  43.859164,   0.648022,  -0.070687,   0.760312,   0.870151, -268.500000, -147.000000, 112.500000,   1.295674, -90.363480,  33.505092,   0.672569,  -0.681473,  -0.196810,   0.210828, 
22221,  -0.148853,  -9.863733,  -0.333788,   0.982907,  43.163816,   0.526713,  -0.073381,   0.766288,   0.885242, -270.000000, -144.000000, 117.000000,   1.285739, -90.396368,  33.071442,   0.673178,  -0.682383,  -0.194347,   0.208165, 
22222,  -0.173213,  -9.715547,  -0.206983,   0.731811,  42.969100,   0.607517,  -0.075220,   0.776336,   0.877647, -271.500000, -141.000000, 114.000000,   1.279676, -90.423976,  32.642204,   0.673803,  -0.683262,  -0.191876,   0.205561, 
22223,  -0.330082,  -9.794080,  -0.181189,   0.902829,  43.094412,   0.642572,  -0.083197,   0.783853,   0.879774, -276.000000, -138.000000, 114.000000,   1.286497, -90.437944,  32.213668,   0.674476,  -0.684073,  -0.189305,   0.203058, 
22224,  -0.333851,  -9.745234,  -0.099020,   0.876259,  43.680360,   0.595637,  -0.090598,   0.764393,   0.882649, -279.000000, -144.000000, 115.500000,   1.293581, -90.447040,  31.780844,   0.675163,  -0.684840,  -0.186691,   0.200534, 
22225,  -0.347459,  -9.802760,   0.005953,   0.895873,  43.924364,   0.579881,  -0.088588,   0.755159,   0.885708, -277.500000, -147.000000, 117.000000,   1.303896, -90.439568,  31.344258,   0.675951,  -0.685520,  -0.184007,   0.198034, 
22226,  -0.270107,  -9.757444,  -0.026553,   0.923649,  44.124852,   0.560541,  -0.084614,   0.768917,   0.887116, -276.000000, -142.500000, 117.000000,   1.305060, -90.433488,  30.905284,   0.676749,  -0.686196,  -0.181365,   0.195463, 
22227,  -0.290485,  -9.752984,  -0.051292,   0.905842,  44.153440,   0.537645,  -0.087495,   0.771272,   0.897092, -277.500000, -141.000000, 120.000000,   1.307658, -90.429216,  30.465564,   0.677505,  -0.686855,  -0.178705,   0.192884, 
22228,  -0.260527,  -9.762542,  -0.167535,   0.879865,  44.026732,   0.488692,  -0.087495,   0.771272,   0.897092, -277.500000, -141.000000, 120.000000,   1.308731, -90.436264,  30.026052,   0.678195,  -0.687579,  -0.176075,   0.190279, 
22229,  -0.302003,  -9.765205,  -0.233419,   1.065678,  44.105592,   0.530820,  -0.099275,   0.765845,   0.893273, -283.500000, -142.500000, 118.500000,   1.317562, -90.444584,  29.586180,   0.678866,  -0.688322,  -0.173397,   0.187717, 
22230,  -0.311669,  -9.744477,  -0.236953,   1.014269,  44.614180,   0.613748,  -0.105788,   0.756071,   0.892766, -286.500000, -145.500000, 118.500000,   1.321547, -90.456360,  29.143514,   0.679501,  -0.689054,  -0.170730,   0.185098, 
22231,  -0.257190,  -9.721559,  -0.075154,   0.870744,  45.236824,   0.541034,  -0.114840,   0.750281,   0.893161, -291.000000, -147.000000, 118.500000,   1.334064, -90.458384,  28.695546,   0.680185,  -0.689745,  -0.167963,   0.182511, 
22232,  -0.206176,  -9.832672,  -0.070980,   0.984030,  45.904272,   0.645038,  -0.123364,   0.749741,   0.889596, -295.500000, -147.000000, 117.000000,   1.341186, -90.460440,  28.240848,   0.680889,  -0.690437,  -0.165188,   0.179853, 
22233,  -0.200697,  -9.675653,  -0.026964,   0.875089,  46.479148,   0.717873,  -0.128630,   0.754088,   0.886284, -298.500000, -145.500000, 115.500000,   1.351466, -90.454000,  27.780242,   0.681624,  -0.691066,  -0.162339,   0.177184, 
22234,  -0.302851,  -9.824694,  -0.018581,   0.950475,  46.865424,   0.713963,  -0.122442,   0.765040,   0.905518, -295.500000, -141.000000, 121.500000,   1.360159, -90.439072,  27.314620,   0.682413,  -0.691641,  -0.159454,   0.174485, 
22235,  -0.308595,  -9.765192,   0.055580,   0.988495,  47.143156,   0.730920,  -0.120604,   0.754991,   0.913114, -294.000000, -144.000000, 124.500000,   1.359268, -90.423272,  26.846080,   0.683226,  -0.692200,  -0.156608,   0.171712, 
22236,  -0.237870,  -9.733456,   0.030358,   0.963160,  47.237764,   0.468332,  -0.126058,   0.755717,   0.904687, -297.000000, -144.000000, 121.500000,   1.349934, -90.413656,  26.375964,   0.683991,  -0.692761,  -0.153808,   0.168863, 
22237,  -0.250959,  -9.816746,  -0.029008,   1.058952,  47.284252,   0.517596,  -0.128956,   0.755266,   0.905011, -298.500000, -144.000000, 121.500000,   1.333196, -90.410304,  25.904548,   0.684721,  -0.693343,  -0.151051,   0.165950, 
22238,  -0.237539,  -9.733315,  -0.045179,   0.862119,  47.451820,   0.531943,  -0.135794,   0.746669,   0.923231, -301.500000, -145.500000, 127.500000,   1.319809, -90.406712,  25.432470,   0.685448,  -0.693929,  -0.148271,   0.163054, 
22239,  -0.289501,  -9.801241,  -0.089613,   1.016987,  47.688076,   0.609404,  -0.138505,   0.749839,   0.928671, -303.000000, -144.000000, 129.000000,   1.316887, -90.405544,  24.958532,   0.686122,  -0.694520,  -0.145415,   0.160200, 
22240,  -0.348989,  -9.749956,  -0.069038,   1.005404,  48.074992,   0.692543,  -0.144130,   0.749750,   0.924781, -306.000000, -144.000000, 127.500000,   1.321027, -90.401336,  24.481456,   0.686800,  -0.695096,  -0.142490,   0.157372, 
22241,  -0.424304,  -9.734967,  -0.126769,   1.100162,  48.391980,   0.676978,  -0.153011,   0.744775,   0.920638, -310.500000, -145.500000, 126.000000,   1.326446, -90.397256,  24.001070,   0.687481,  -0.695679,  -0.139539,   0.154531, 
22242,  -0.424578,  -9.737891,  -0.037134,   0.932489,  48.520028,   0.708349,  -0.155209,   0.750388,   0.912465, -312.000000, -144.000000, 123.000000,   1.329825, -90.389000,  23.518140,   0.688165,  -0.696209,  -0.136573,   0.151662, 
22243,  -0.420650,  -9.785557,  -0.047563,   0.980135,  48.581324,   0.539773,  -0.155396,   0.746767,   0.907349, -312.000000, -145.500000, 121.500000,   1.331114, -90.382304,  23.034146,   0.688836,  -0.696739,  -0.133615,   0.148769, 
22244,  -0.441375,  -9.724269,  -0.017184,   0.889624,  48.510744,   0.611980,  -0.155380,   0.749573,   0.917002, -312.000000, -144.000000, 124.500000,   1.347165, -90.375456,  22.550388,   0.689491,  -0.697285,  -0.130569,   0.145967, 
22245,  -0.403300,  -9.816123,  -0.031192,   0.969659,  48.296784,   0.557810,  -0.166442,   0.753017,   0.914338, -318.000000, -142.500000, 123.000000,   1.369351, -90.371376,  22.068572,   0.690087,  -0.697819,  -0.127495,   0.143204, 
22246,  -0.461624,  -9.764227,  -0.093494,   1.039223,  48.003220,   0.587205,  -0.178393,   0.746776,   0.915056, -324.000000, -144.000000, 123.000000,   1.401826, -90.376440,  21.589176,   0.690609,  -0.698412,  -0.124384,   0.140507, 
22247,  -0.383424,  -9.747769,  -0.110211,   0.938581,  47.482808,   0.635837,  -0.182179,   0.736639,   0.918763, -325.500000, -147.000000, 124.500000,   1.427185, -90.378200,  21.113720,   0.691155,  -0.698970,  -0.121335,   0.137795, 
22248,  -0.330151,  -9.776456,  -0.159801,   0.864513,  46.829240,   0.555720,  -0.193412,   0.739268,   0.920636, -331.500000, -145.500000, 124.500000,   1.453558, -90.390480,  20.643334,   0.691597,  -0.699552,  -0.118318,   0.135102, 
22249,  -0.259589,  -9.808058,  -0.161657,   0.987493,  46.260252,   0.677510,  -0.188909,   0.758276,   0.918085, -330.000000, -139.500000, 123.000000,   1.463915, -90.405056,  20.179192,   0.692037,  -0.700122,  -0.115437,   0.132347, 
22250,  -0.163427,  -9.709270,  -0.107758,   0.766213,  45.584444,   0.628253,  -0.197432,   0.757736,   0.914519, -334.500000, -139.500000, 121.500000,   1.467094, -90.412904,  19.721460,   0.692519,  -0.700639,  -0.112631,   0.129596, 
22251,  -0.276513,  -9.830456,  -0.155307,   1.069151,  44.952024,   0.602949,  -0.210458,   0.738188,   0.913506, -340.500000, -145.500000, 121.500000,   1.472989, -90.423920,  19.270418,   0.692939,  -0.701139,  -0.109847,   0.126892, 
22252,  -0.329568,  -9.751699,  -0.126730,   0.879253,  43.973620,   0.539959,  -0.212965,   0.747785,   0.933712, -342.000000, -141.000000, 127.500000,   1.480461, -90.434192,  18.826916,   0.693352,  -0.701626,  -0.107098,   0.124245, 
22253,  -0.450549,  -9.770048,  -0.166005,   0.914942,  43.244212,   0.562205,  -0.218915,   0.748874,   0.948550, -345.000000, -139.500000, 132.000000,   1.491461, -90.441960,  18.391696,   0.693768,  -0.702093,  -0.104375,   0.121672, 
22254,  -0.401348,  -9.705360,  -0.103037,   0.859692,  42.852488,   0.476310,  -0.213853,   0.738100,   0.937094, -342.000000, -144.000000, 129.000000,   1.500224, -90.443400,  17.962536,   0.694195,  -0.702490,  -0.101692,   0.119125, 
22255,  -0.390207,  -9.792776,  -0.150227,   0.752020,  42.399504,   0.562809,  -0.208261,   0.732575,   0.921679, -339.000000, -147.000000, 124.500000,   1.509560, -90.447128,  17.537978,   0.694595,  -0.702888,  -0.099035,   0.116605, 
22256,  -0.404243,  -9.754247,  -0.183944,   0.901062,  41.829532,   0.502106,  -0.216254,   0.737285,   0.914153, -343.500000, -145.500000, 121.500000,   1.516351, -90.455024,  17.118484,   0.694967,  -0.703304,  -0.096429,   0.114097, 
22257,  -0.382524,  -9.743070,  -0.203840,   0.958336,  41.535648,   0.462704,  -0.218435,   0.745705,   0.915632, -345.000000, -142.500000, 121.500000,   1.526178, -90.466904,  16.702965,   0.695295,  -0.703731,  -0.093830,   0.111627, 
22258,  -0.324821,  -9.743230,  -0.242952,   0.966544,  41.500128,   0.479569,  -0.227113,   0.747157,   0.926257, -349.500000, -141.000000, 124.500000,   1.528200, -90.480160,  16.288345,   0.695604,  -0.704140,  -0.091282,   0.109111, 
22259,  -0.273393,  -9.753510,  -0.229592,   0.774755,  41.234420,   0.620686,  -0.236149,   0.744173,   0.936304, -354.000000, -141.000000, 127.500000,   1.535068, -90.494376,  15.875629,   0.695900,  -0.704558,  -0.088717,   0.106636, 
22260,  -0.158556,  -9.726948,  -0.146094,   0.840613,  40.922188,   0.476617,  -0.241432,   0.745714,   0.923339, -357.000000, -141.000000, 123.000000,   1.527101, -90.503288,  15.465971,   0.696240,  -0.704930,  -0.086256,   0.104094, 
22261,  -0.133918,  -9.813358,  -0.126494,   0.767362,  40.478060,   0.572354,  -0.241261,   0.746528,   0.918802, -357.000000, -141.000000, 121.500000,   1.525836, -90.513344,  15.060399,   0.696533,  -0.705280,  -0.083776,   0.101612, 
22262,  -0.098244,  -9.719029,  -0.087213,   0.873734,  39.944036,   0.564038,  -0.236336,   0.740552,   0.931189, -354.000000, -142.500000, 126.000000,   1.515956, -90.517736,  14.659558,   0.696864,  -0.705587,  -0.081372,   0.099111, 
22263,  -0.031063,  -9.784980,  -0.041905,   0.631875,  38.921272,   0.499688,  -0.241961,   0.740464,   0.927300, -357.000000, -142.500000, 124.500000,   1.494183, -90.521632,  14.266301,   0.697201,  -0.705878,  -0.079087,   0.096584, 
22264,  -0.012575,  -9.802781,  -0.042369,   0.789480,  37.525324,   0.702899,  -0.247928,   0.738746,   0.932485, -360.000000, -142.500000, 126.000000,   1.462045, -90.520656,  13.884989,   0.697553,  -0.706112,  -0.076933,   0.094067, 
22265,  -0.060739,  -9.719876,  -0.030869,   0.454233,  36.536140,   0.202970,  -0.242849,   0.730778,   0.930682, -357.000000, -145.500000, 126.000000,   1.433590, -90.523976,  13.515994,   0.697849,  -0.706352,  -0.074835,   0.091642, 
22266,  -0.178442,  -9.911724,  -0.202434,   0.977419,  35.655852,   0.515103,  -0.250843,   0.735488,   0.923157, -361.500000, -144.000000, 123.000000,   1.425079, -90.527752,  13.156319,   0.698117,  -0.706602,  -0.072673,   0.089397, 
22267,  -0.313765,  -9.607209,  -0.006711,   0.278734,  35.364592,   0.650181,  -0.264257,   0.746537,   0.926509, -369.000000, -139.500000, 123.000000,   1.440227, -90.530224,  12.802314,   0.698370,  -0.706854,  -0.070399,   0.087332, 
22268,  -0.416727,  -9.878819,  -0.217172,   1.081463,  35.707544,   0.229970,  -0.260829,   0.752239,   0.922225, -367.500000, -138.000000, 121.500000,   1.449772, -90.535304,  12.448391,   0.698596,  -0.707102,  -0.068161,   0.085230, 
22269,  -0.453470,  -9.696888,  -0.096928,   0.243371,  36.074664,   0.322992,  -0.264803,   0.738481,   0.920816, -369.000000, -142.500000, 121.500000,   1.471339, -90.547216,  12.090879,   0.698762,  -0.707389,  -0.065831,   0.083176, 
22270,  -0.359953,  -9.846687,  -0.142956,   0.875523,  36.588568,   0.208542,  -0.268231,   0.732779,   0.925100, -370.500000, -144.000000, 123.000000,   1.492332, -90.555000,  11.729458,   0.698958,  -0.707652,  -0.063476,   0.081096, 
22271,  -0.374880,  -9.782078,  -0.216204,   0.666044,  37.178016,   0.573528,  -0.273481,   0.739933,   0.931441, -373.500000, -141.000000, 124.500000,   1.516732, -90.573840,  11.361530,   0.699089,  -0.707987,  -0.061068,   0.078993, 
22272,  -0.327817,  -9.716684,  -0.211677,   0.800964,  37.754704,   0.332875,  -0.272968,   0.742376,   0.917829, -373.500000, -141.000000, 120.000000,   1.529195, -90.584472,  10.987703,   0.699264,  -0.708249,  -0.058689,   0.076783, 
22273,  -0.237282,  -9.763615,  -0.276542,   0.349397,  38.175616,   0.683496,  -0.268823,   0.756949,   0.914700, -372.000000, -136.500000, 118.500000,   1.526606, -90.614032,  10.608462,   0.699328,  -0.708614,  -0.056379,   0.074437, 
22274,  -0.193952,  -9.732462,  -0.280920,   1.060123,  38.758712,   0.214321,  -0.278747,   0.744280,   0.928129, -376.500000, -139.500000, 123.000000,   1.521166, -90.625592,  10.225400,   0.699507,  -0.708869,  -0.054051,   0.072060, 
22275,  -0.264619,  -9.836185,  -0.277976,   0.569433,  39.562132,   0.545198,  -0.294655,   0.727087,   0.937091, -384.000000, -144.000000, 126.000000,   1.511882, -90.651000,   9.834457,   0.699608,  -0.709211,  -0.051705,   0.069605, 
22276,  -0.298576,  -9.675582,  -0.134710,   0.959057,  40.698228,   0.221557,  -0.296461,   0.742748,   0.948801, -385.500000, -138.000000, 129.000000,   1.513359, -90.657392,   9.434551,   0.699796,  -0.709416,  -0.049224,   0.067169, 
22277,  -0.433251,  -9.881847,  -0.142346,   0.556762,  41.741160,   0.461931,  -0.298487,   0.749176,   0.936090, -387.000000, -136.500000, 124.500000,   1.523896, -90.666560,   9.023605,   0.699967,  -0.709646,  -0.046620,   0.064720, 
22278,  -0.287233,  -9.677796,  -0.096856,   0.994534,  43.061272,   0.387707,  -0.303958,   0.747095,   0.918010, -390.000000, -138.000000, 118.500000,   1.527802, -90.668776,   8.601052,   0.700192,  -0.709835,  -0.043981,   0.062162, 
22279,  -0.445248,  -9.761009,  -0.271009,   0.761726,  44.268088,   0.665737,  -0.306310,   0.754700,   0.924026, -391.500000, -135.000000, 120.000000,   1.551697, -90.675912,   8.166208,   0.700363,  -0.710046,  -0.041144,   0.059650, 
22280,  -0.475244,  -9.580585,   0.009873,   0.643729,  45.345332,   0.006681,  -0.307181,   0.747821,   0.937061, -391.500000, -136.500000, 124.500000,   1.568170, -90.664456,   7.720649,   0.700647,  -0.710130,  -0.038276,   0.057031, 
22281,  -0.272838, -10.021735,  -0.262229,   1.123827,  46.116540,   0.467588,  -0.315549,   0.745289,   0.919306, -396.000000, -138.000000, 118.500000,   1.577117, -90.674800,   7.264642,   0.700805,  -0.710348,  -0.035400,   0.054295, 
22282,  -0.159778,  -9.569760,  -0.000882,   0.737949,  46.535724,   0.895295,  -0.321004,   0.746015,   0.910879, -399.000000, -138.000000, 115.500000,   1.584828, -90.671152,   6.802977,   0.701037,  -0.710465,  -0.032489,   0.051520, 
22283,  -0.247962,  -9.938566,  -0.233659,   1.180744,  46.686456,   0.608885,  -0.324056,   0.747556,   0.925393, -400.500000, -136.500000, 120.000000,   1.593766, -90.676864,   6.337979,   0.701195,  -0.710622,  -0.029553,   0.048729, 
22284,  -0.272571,  -9.707613,  -0.195915,   0.737527,  46.455544,   0.677259,  -0.324227,   0.746741,   0.929931, -400.500000, -136.500000, 121.500000,   1.579558, -90.691336,   5.873461,   0.701309,  -0.710827,  -0.026765,   0.045795, 
22285,  -0.289282,  -9.633036,  -0.154087,   1.093796,  46.506628,   0.195693,  -0.330895,   0.738959,   0.943614, -403.500000, -138.000000, 126.000000,   1.564002, -90.690992,   5.410012,   0.701498,  -0.710926,  -0.023986,   0.042862, 
22286,  -0.104507,  -9.861453,  -0.315423,   0.821354,  46.406884,   0.476183,  -0.339092,   0.737242,   0.921321, -408.000000, -139.500000, 118.500000,   1.533062, -90.706088,   4.946281,   0.701577,  -0.711098,  -0.021303,   0.039828, 
22287,   0.105412,  -9.672725,  -0.008942,   0.850843,  46.322432,   0.598783,  -0.335510,   0.740951,   0.902847, -406.500000, -139.500000, 112.500000,   1.501385, -90.703208,   4.484480,   0.701766,  -0.711162,  -0.018631,   0.036805, 
22288,   0.051200,  -9.955762,  -0.219376,   1.154026,  46.122584,   0.699139,  -0.339092,   0.737242,   0.921321, -408.000000, -139.500000, 118.500000,   1.469726, -90.715312,   4.023651,   0.701846,  -0.711304,  -0.015968,   0.033784, 
22289,  -0.220124,  -9.690917,  -0.003119,   0.736965,  46.109616,   0.680777,  -0.345776,   0.726653,   0.925351, -411.000000, -142.500000, 120.000000,   1.456419, -90.718152,   3.563635,   0.701955,  -0.711371,  -0.013195,   0.030883, 
