Standard output of YIS Manager:
  TID,     AccX,     AccY,     AccZ,    AngVX,    AngVY,    AngVZ,     MagX,     MagY,     MagZ, NormMagX, NormMagY, NormMagZ,    Pitch,     Roll,      Yaw,       q0,       q1,       q2,       q3, 
22881,  -0.144236,  -9.757103,  -0.167254,  -0.033926,   0.135054,  -0.048799,   0.039417,   1.103570,  -0.832228, -246.000000, -136.500000, -450.000000,   0.693892, -91.029624, 177.286080,   0.012274,  -0.021135,  -0.713090,   0.700590, 
22882,  -0.097392,  -9.763148,  -0.197008,  -0.033212,   0.197018,  -0.108611,   0.033466,   1.104659,  -0.817390, -249.000000, -135.000000, -445.500000,   0.691399, -91.030384, 177.310112,   0.012143,  -0.020971,  -0.713099,   0.700587, 
22883,  -0.104115,  -9.772020,  -0.177588,  -0.051174,   0.126152,  -0.057850,   0.036022,   1.103482,  -0.808639, -247.500000, -135.000000, -442.500000,   0.690555, -91.030816, 177.335920,   0.011990,  -0.020805,  -0.713106,   0.700586, 
22884,  -0.117249,  -9.751307,  -0.164688,  -0.042441,   0.134852,  -0.092411,   0.042160,   1.106014,  -0.818362, -244.500000, -135.000000, -445.500000,   0.689651, -91.031216, 177.354976,   0.011879,  -0.020681,  -0.713111,   0.700585, 
22885,  -0.105298,  -9.778494,  -0.188815,   0.000158,   0.108288,  -0.048899,   0.041802,   1.101578,  -0.818940, -244.500000, -136.500000, -445.500000,   0.687444, -91.031560, 177.369376,   0.011805,  -0.020578,  -0.713116,   0.700584, 
22886,  -0.123987,  -9.791438,  -0.178930,  -0.119841,   0.126218,  -0.076011,   0.035818,   1.097054,  -0.823407, -247.500000, -138.000000, -447.000000,   0.687401, -91.030616, 177.388752,   0.011686,  -0.020457,  -0.713113,   0.700591, 
22887,  -0.134697,  -9.776621,  -0.179000,  -0.058227,   0.277275,  -0.081352,   0.032904,   1.093796,  -0.832735, -249.000000, -139.500000, -450.000000,   0.689813, -91.030384, 177.415344,   0.011509,  -0.020306,  -0.713115,   0.700595, 
22888,  -0.117342,  -9.776701,  -0.173559,   0.000128,   0.099215,  -0.083872,   0.040864,   1.083473,  -0.844514, -244.500000, -144.000000, -453.000000,   0.688399, -91.030496, 177.436816,   0.011386,  -0.020164,  -0.713119,   0.700596, 
22889,  -0.141209,  -9.763589,  -0.181990,   0.009416,   0.170366,  -0.082506,   0.053328,   1.092158,  -0.858845, -238.500000, -142.500000, -457.500000,   0.690239, -91.030184, 177.445376,   0.011323,  -0.020122,  -0.713118,   0.700598, 
22890,  -0.118905,  -9.748293,  -0.193617,  -0.128122,   0.152793,  -0.101739,   0.054420,   1.108271,  -0.847461, -238.500000, -136.500000, -454.500000,   0.689309, -91.031472, 177.442528,   0.011346,  -0.020134,  -0.713126,   0.700590, 
22891,  -0.109580,  -9.750212,  -0.135713,  -0.128224,   0.143941,  -0.093194,   0.048094,   1.102118,  -0.842852, -241.500000, -138.000000, -453.000000,   0.687620, -91.027824, 177.442768,   0.011355,  -0.020122,  -0.713104,   0.700613, 
22892,  -0.095754,  -9.791526,  -0.194064,  -0.119199,   0.188403,  -0.092305,   0.039042,   1.096328,  -0.842458, -246.000000, -139.500000, -453.000000,   0.685018, -91.029160, 177.453680,   0.011305,  -0.020038,  -0.713114,   0.700605, 
22893,  -0.136287,  -9.722869,  -0.163041,  -0.213581,   0.206718,  -0.032099,   0.036315,   1.096691,  -0.846672, -247.500000, -139.500000, -454.500000,   0.682741, -91.028640, 177.472864,   0.011202,  -0.019905,  -0.713114,   0.700609, 
22894,  -0.156068,  -9.787316,  -0.101265,  -0.172109,   0.046135,  -0.104119,   0.040831,   1.077860,  -0.863819, -244.500000, -147.000000, -459.000000,   0.693493, -91.027792, 177.497280,   0.010985,  -0.019818,  -0.713111,   0.700618, 
22895,   0.078668,  -9.802478,  -0.228509,   0.076645,   0.371656,   0.268961,   0.044992,   1.095239,  -0.857296, -243.000000, -141.000000, -457.500000,   0.680569, -91.025104, 177.503440,   0.011029,  -0.019701,  -0.713097,   0.700633, 
22896,  -0.414989,  -9.761849,  -0.202325,  -0.141814,  -0.399772,  -0.311875,   0.051522,   1.107820,  -0.847137, -240.000000, -136.500000, -454.500000,   0.693414, -91.028216, 177.514464,   0.010881,  -0.019711,  -0.713116,   0.700616, 
22897,   0.032890,  -9.719464,  -0.138564,  -0.217677,   0.696031,   0.170914,   0.052456,   1.085279,  -0.845811, -238.500000, -144.000000, -453.000000,   0.710166, -91.021296, 177.519968,   0.010744,  -0.019778,  -0.713072,   0.700661, 
22898,  -0.031988,  -9.690008,  -0.266110,   0.125902,  -0.249223,  -0.323657,   0.045772,   1.074691,  -0.841780, -241.500000, -147.000000, -451.500000,   0.668454, -91.028824, 177.503680,   0.011102,  -0.019626,  -0.713122,   0.700609, 
22899,  -0.311862,  -9.902002,  -0.089848,  -0.370919,   0.567802,  -0.235321,   0.037983,   1.085828,  -0.834538, -246.000000, -142.500000, -450.000000,   0.704881, -91.025392, 177.534144,   0.010690,  -0.019658,  -0.713100,   0.700636, 
22900,  -0.094933,  -9.586576,  -0.139623,  -0.228287,   0.364143,  -0.569046,   0.027637,   1.098143,  -0.836047, -252.000000, -138.000000, -451.500000,   0.699269, -91.018816, 177.555856,   0.010593,  -0.019488,  -0.713064,   0.700678, 
22901,  -0.096913,  -9.885239,  -0.252956,  -0.108674,   0.077157,  -0.194733,   0.033792,   1.103482,  -0.836118, -249.000000, -136.500000, -451.500000,   0.692194, -91.027912, 177.582368,   0.010473,  -0.019281,  -0.713125,   0.700623, 
22902,  -0.361101,  -9.703970,   0.014116,  -0.204523,   0.186913,  -0.423983,   0.036160,   1.098683,  -0.832482, -247.500000, -138.000000, -450.000000,   0.716460, -91.010384, 177.615600,   0.010122,  -0.019221,  -0.713018,   0.700737, 
22903,   0.160090,  -9.871274,  -0.412605,   0.070952,   0.520503,  -0.006950,   0.038187,   1.092256,  -0.819771, -246.000000, -139.500000, -445.500000,   0.702285, -91.027776, 177.624912,   0.010150,  -0.019078,  -0.713129,   0.700628, 
22904,  -0.257370,  -9.636893,  -0.055884,  -0.329560,  -0.283785,  -0.329288,   0.040384,   1.086643,  -0.811597, -244.500000, -141.000000, -442.500000,   0.693250, -91.024496, 177.636080,   0.010139,  -0.018953,  -0.713112,   0.700648, 
22905,   0.422544,  -9.878698,  -0.382326,   0.473145,  -0.321474,   0.980458,   0.047206,   1.092433,  -0.839470, -241.500000, -141.000000, -451.500000,   0.647035, -91.030800, 177.623248,   0.010504,  -0.018751,  -0.713156,   0.700604, 
22906,  -0.635085,  -9.716467,   0.023278,  -0.219257,  -1.179298,   0.300033,   0.038137,   1.083836,  -0.848728, -246.000000, -144.000000, -454.500000,   0.675436, -91.022928, 177.649936,   0.010165,  -0.018757,  -0.713107,   0.700658, 
22907,  -0.176855,  -9.802117,  -0.146479,   0.251706,   1.066296,   0.113040,   0.034914,   1.084562,  -0.829677, -247.500000, -142.500000, -448.500000,   0.730472, -91.000448, 177.691360,   0.009573,  -0.018834,  -0.712967,   0.700805, 
22908,  -0.219004,  -9.796580,  -0.383839,  -0.416406,  -0.454747,  -0.751024,   0.035973,   1.095062,  -0.837597, -247.500000, -139.500000, -451.500000,   0.688809, -91.039968, 177.691200,   0.009827,  -0.018584,  -0.713216,   0.700556, 
22909,  -0.536029,  -9.619898,   0.098049,  -0.075977,   1.032803,  -0.401737,   0.033246,   1.095425,  -0.841810, -249.000000, -139.500000, -453.000000,   0.767400, -91.008680, 177.748192,   0.008994,  -0.018707,  -0.713020,   0.700761, 
22910,   0.343673,  -9.861383,  -0.446377,  -0.171903,  -0.009501,  -0.548955,   0.035785,   1.091441,  -0.842712, -247.500000, -141.000000, -453.000000,   0.680075, -91.035224, 177.725312,   0.009674,  -0.018318,  -0.713193,   0.700587, 
22911,  -0.301675,  -9.844365,  -0.036749,   0.077857,  -0.235959,   0.513465,   0.038496,   1.088272,  -0.848151, -246.000000, -142.500000, -454.500000,   0.699118, -91.037744, 177.752272,   0.009390,  -0.018266,  -0.713210,   0.700575, 
22912,   0.066128,  -9.793328,  -0.212924,   0.171176,   0.082631,   0.231022,   0.031470,   1.076054,  -0.835045, -249.000000, -145.500000, -450.000000,   0.687096, -91.035584, 177.763392,   0.009397,  -0.018124,  -0.713200,   0.700589, 
22913,   0.105173,  -9.733229,  -0.238756,   0.044809,  -0.472573,   0.617200,   0.038137,   1.083836,  -0.848728, -246.000000, -144.000000, -454.500000,   0.654252, -91.047928, 177.767088,   0.009577,  -0.017901,  -0.713281,   0.700509, 
22914,  -0.527422,  -9.750011,   0.031730,  -0.089407,  -0.265115,  -0.047817,   0.048094,   1.102118,  -0.842852, -241.500000, -138.000000, -453.000000,   0.695144, -91.027192, 177.786672,   0.009206,  -0.018027,  -0.713151,   0.700643, 
22915,   0.134375,  -9.825632,  -0.325683,  -0.037923,   0.380293,   0.360684,   0.039075,   1.101941,  -0.823153, -246.000000, -136.500000, -447.000000,   0.693730, -91.030224, 177.795056,   0.009163,  -0.017967,  -0.713171,   0.700625, 
22916,  -0.290639,  -9.685239,  -0.042591,  -0.161626,  -0.629929,  -0.098609,   0.048111,   1.104925,  -0.833200, -241.500000, -136.500000, -450.000000,   0.688854, -91.025344, 177.792368,   0.009210,  -0.017953,  -0.713141,   0.700654, 
22917,  -0.358074,  -9.824489,  -0.150468,   0.107791,   0.385985,  -0.008934,   0.047752,   1.100489,  -0.833778, -241.500000, -138.000000, -450.000000,   0.733294, -91.012472, 177.810976,   0.008822,  -0.018108,  -0.713058,   0.700739, 
22918,   0.025972,  -9.737740,  -0.146497,  -0.186207,   0.320849,  -0.316967,   0.037983,   1.085828,  -0.834538, -246.000000, -142.500000, -450.000000,   0.719752, -91.014160, 177.816112,   0.008875,  -0.017993,  -0.713072,   0.700728, 
22919,  -0.152272,  -9.742208,  -0.215501,   0.045951,   0.241853,  -0.391238,   0.038513,   1.091078,  -0.838498, -246.000000, -141.000000, -451.500000,   0.712747, -91.014368, 177.825328,   0.008862,  -0.017893,  -0.713075,   0.700727, 
22920,  -0.091535,  -9.800965,  -0.210563,  -0.194705,   0.338927,  -0.264521,   0.042469,   1.102030,  -0.846742, -244.500000, -138.000000, -454.500000,   0.709478, -91.020736, 177.830016,   0.008853,  -0.017845,  -0.713116,   0.700687, 
22921,  -0.033201,  -9.759841,  -0.208330,  -0.026071,   0.054792,  -0.084950,   0.036006,   1.100675,  -0.818292, -247.500000, -136.500000, -445.500000,   0.693765, -91.025072, 177.836944,   0.008907,  -0.017706,  -0.713146,   0.700660, 
22922,  -0.087273,  -9.774421,  -0.194579,  -0.000436,   0.073456,   0.098425,   0.033141,   1.105837,  -0.798663, -249.000000, -133.500000, -439.500000,   0.689066, -91.029784, 177.852064,   0.008843,  -0.017583,  -0.713178,   0.700631, 
22923,  -0.168184,  -9.738129,  -0.150305,   0.000246,   0.117185,  -0.048740,   0.034713,   1.118780,  -0.820195, -249.000000, -130.500000, -447.000000,   0.693492, -91.026632, 177.869568,   0.008709,  -0.017501,  -0.713160,   0.700653, 
22924,  -0.141806,  -9.820189,  -0.249312,  -0.076641,   0.161972,  -0.022682,   0.032841,   1.123216,  -0.847096, -250.500000, -130.500000, -456.000000,   0.699424, -91.033600, 177.891472,   0.008537,  -0.017402,  -0.713205,   0.700611, 
22925,  -0.252277,  -9.710156,  -0.073601,  -0.161989,   0.197219,  -0.127432,   0.043545,   1.115336,  -0.845010, -244.500000, -133.500000, -454.500000,   0.716660, -91.028320, 177.901632,   0.008369,  -0.017443,  -0.713172,   0.700646, 
22926,  -0.094459,  -9.797385,  -0.222976,  -0.056173,   0.454269,  -0.260946,   0.045213,   1.104473,  -0.832876, -243.000000, -136.500000, -450.000000,   0.717155, -91.029560, 177.900288,   0.008374,  -0.017455,  -0.713179,   0.700639, 
22927,  -0.145656,  -9.719455,  -0.072223,  -0.256130,   0.196456,  -0.319947,   0.038374,   1.095877,  -0.814656, -246.000000, -138.000000, -444.000000,   0.714318, -91.024912, 177.907408,   0.008349,  -0.017393,  -0.713152,   0.700668, 
22928,  -0.061940,  -9.786838,  -0.246333,  -0.064788,   0.454377,  -0.243633,   0.037299,   1.082570,  -0.816388, -246.000000, -142.500000, -444.000000,   0.708421, -91.025736, 177.914032,   0.008345,  -0.017316,  -0.713159,   0.700663, 
22929,  -0.032849,  -9.785303,  -0.181787,  -0.111050,   0.143903,  -0.093006,   0.037624,   1.081393,  -0.835116, -246.000000, -144.000000, -450.000000,   0.695104, -91.032288, 177.918416,   0.008400,  -0.017207,  -0.713202,   0.700621, 
22930,  -0.145514,  -9.742981,  -0.132434,  -0.043421,   0.027876,  -0.137837,   0.034897,   1.081756,  -0.839329, -247.500000, -144.000000, -451.500000,   0.693666, -91.027504, 177.932592,   0.008323,  -0.017110,  -0.713175,   0.700652, 
22931,  -0.127871,  -9.768294,  -0.222615,  -0.127888,   0.179570,  -0.083855,   0.039026,   1.093522,  -0.852111, -246.000000, -141.000000, -456.000000,   0.695914, -91.030280, 177.942688,   0.008247,  -0.017061,  -0.713193,   0.700636, 
22932,  -0.115036,  -9.764368,  -0.138123,  -0.069138,   0.036963,  -0.111850,   0.045384,   1.105288,  -0.837414, -243.000000, -136.500000, -451.500000,   0.693499, -91.027752, 177.940544,   0.008275,  -0.017060,  -0.713178,   0.700651, 
22933,  -0.187590,  -9.806542,  -0.178824,  -0.050488,   0.188205,  -0.100255,   0.045742,   1.109723,  -0.836836, -243.000000, -135.000000, -451.500000,   0.703747, -91.026832, 177.943584,   0.008193,  -0.017103,  -0.713171,   0.700658, 
22934,   0.106099,  -9.717837,  -0.219067,  -0.051040,   0.153240,   0.020958,   0.046068,   1.108546,  -0.855564, -243.000000, -136.500000, -457.500000,   0.680143, -91.031440, 177.931264,   0.008415,  -0.017036,  -0.713201,   0.700626, 
22935,  -0.208493,  -9.748645,  -0.127006,   0.015563,  -0.078792,  -0.095568,   0.045709,   1.104110,  -0.856141, -243.000000, -138.000000, -457.500000,   0.679206, -91.026496, 177.931216,   0.008421,  -0.017030,  -0.713171,   0.700657, 
22936,  -0.034111,  -9.839570,  -0.231408,   0.017807,   0.198452,   0.196579,   0.048469,   1.109360,  -0.832623, -241.500000, -135.000000, -450.000000,   0.682900, -91.027912, 177.926256,   0.008428,  -0.017084,  -0.713178,   0.700648, 
22937,  -0.079562,  -9.749721,  -0.147292,  -0.148823,  -0.157118,   0.171020,   0.053002,   1.093336,  -0.840118, -238.500000, -141.000000, -451.500000,   0.673140, -91.028016, 177.909680,   0.008590,  -0.017127,  -0.713178,   0.700645, 
22938,  -0.259145,  -9.794563,  -0.110300,  -0.034847,   0.037063,  -0.076659,   0.043950,   1.087546,  -0.839724, -243.000000, -142.500000, -451.500000,   0.693045, -91.024040, 177.920272,   0.008402,  -0.017183,  -0.713152,   0.700672, 
22939,  -0.094510,  -9.737265,  -0.140313,  -0.066915,   0.277604,  -0.020521,   0.035085,   1.085377,  -0.834214, -247.500000, -142.500000, -450.000000,   0.697223, -91.017280, 177.935424,   0.008285,  -0.017113,  -0.713112,   0.700716, 
22940,  -0.141107,  -9.762956,  -0.204415,  -0.130285,  -0.069700,  -0.123122,   0.033651,   1.067635,  -0.836524, -247.500000, -148.500000, -450.000000,   0.689784, -91.021000, 177.948096,   0.008253,  -0.016989,  -0.713138,   0.700693, 
22941,  -0.105320,  -9.749612,  -0.149844,  -0.147102,   0.002570,   0.086846,   0.034914,   1.084562,  -0.829677, -247.500000, -142.500000, -448.500000,   0.694876, -91.016592, 177.964992,   0.008119,  -0.016915,  -0.713113,   0.700722, 
22942,  -0.063944,  -9.812269,  -0.229251,   0.058222,  -0.096371,  -0.034489,   0.041460,   1.099949,  -0.809865, -244.500000, -136.500000, -442.500000,   0.682992, -91.022856, 177.963728,   0.008200,  -0.016851,  -0.713153,   0.700682, 
22943,  -0.135598,  -9.785590,  -0.120586,  -0.147816,  -0.059393,   0.146659,   0.047101,   1.102844,  -0.796323, -241.500000, -135.000000, -438.000000,   0.687146, -91.021176, 177.960336,   0.008195,  -0.016897,  -0.713142,   0.700693, 
22944,   0.038436,  -9.741125,  -0.259718,   0.091190,  -0.193022,   0.216541,   0.044358,   1.100401,  -0.810189, -243.000000, -136.500000, -442.500000,   0.671583, -91.028808, 177.952176,   0.008340,  -0.016853,  -0.713189,   0.700644, 
22945,  -0.280088,  -9.767932,  -0.086241,  -0.099175,  -0.371453,   0.028512,   0.046630,   1.119409,  -0.840219, -243.000000, -132.000000, -453.000000,   0.685159, -91.023008, 177.957872,   0.008222,  -0.016900,  -0.713153,   0.700681, 
22946,  -0.040571,  -9.787936,  -0.337650,   0.136844,   0.091826,   0.274322,   0.046801,   1.120223,  -0.844756, -243.000000, -132.000000, -454.500000,   0.691737, -91.029960, 177.958352,   0.008177,  -0.016938,  -0.713194,   0.700638, 
22947,  -0.346057,  -9.726411,  -0.026508,  -0.314064,  -0.443646,  -0.271037,   0.038871,   1.095514,  -0.837921, -246.000000, -139.500000, -451.500000,   0.706579, -91.023168, 177.975632,   0.007980,  -0.016921,  -0.713153,   0.700683, 
22948,  -0.098039,  -9.793826,  -0.222410,   0.161898,  -0.016049,   0.063811,   0.035614,   1.090627,  -0.838174, -247.500000, -141.000000, -451.500000,   0.721994, -91.018560, 177.997184,   0.007753,  -0.016881,  -0.713126,   0.700714, 
22949,  -0.397554,  -9.760972,  -0.077079,  -0.302839,  -1.066997,  -0.395127,   0.036144,   1.095877,  -0.842134, -247.500000, -139.500000, -453.000000,   0.742803, -91.015528, 178.025792,   0.007449,  -0.016830,  -0.713109,   0.700737, 
22950,  -0.281166,  -9.772305,  -0.134121,   0.033429,  -1.724874,   0.030102,   0.041907,   1.091167,  -0.862087, -244.500000, -142.500000, -459.000000,   0.775037, -91.005800, 178.057792,   0.007054,  -0.016827,  -0.713050,   0.700801, 
22951,  -0.394317,  -9.741426,  -0.108911,  -0.201857,  -2.987925,  -0.245381,   0.038137,   1.083836,  -0.848728, -246.000000, -144.000000, -454.500000,   0.805256, -91.001736, 178.104960,   0.006578,  -0.016718,  -0.713028,   0.700832, 
22952,  -0.242489,  -9.797707,  -0.116014,  -0.074788,  -4.175778,   0.047253,   0.038888,   1.098320,  -0.828268, -246.000000, -138.000000, -448.500000,   0.828077, -90.994464, 178.157120,   0.006118,  -0.016533,  -0.712988,   0.700882, 
22953,  -0.357261,  -9.724518,  -0.066131,  -0.272281,  -4.891162,  -0.192942,   0.048111,   1.104925,  -0.833200, -241.500000, -136.500000, -450.000000,   0.860901, -90.985488, 178.211008,   0.005585,  -0.016398,  -0.712937,   0.700944, 
22954,  -0.198839,  -9.781947,  -0.211678,  -0.207351,  -6.042739,  -0.180775,   0.040881,   1.086280,  -0.834862, -244.500000, -142.500000, -450.000000,   0.866386, -90.986056, 178.270256,   0.005189,  -0.016062,  -0.712949,   0.700944, 
22955,  -0.308433,  -9.737567,  -0.146629,  -0.208622,  -6.233472,   0.018890,   0.041394,   1.088723,  -0.848475, -244.500000, -142.500000, -454.500000,   0.891041, -90.980280, 178.345296,   0.004577,  -0.015746,  -0.712923,   0.700986, 
22956,  -0.122704,  -9.747682,  -0.161776,  -0.309831,  -7.157843,  -0.263603,   0.039913,   1.103207,  -0.855493, -246.000000, -138.000000, -457.500000,   0.882162, -90.981448, 178.411536,   0.004227,  -0.015280,  -0.712942,   0.700983, 
22957,  -0.176103,  -9.719872,  -0.099597,  -0.056936,  -7.390127,   0.043526,   0.039026,   1.093522,  -0.852111, -246.000000, -141.000000, -456.000000,   0.893792, -90.971312, 178.492784,   0.003659,  -0.014845,  -0.712892,   0.701052, 
22958,  -0.001764,  -9.791142,  -0.216511,  -0.384402,  -8.541961,  -0.366376,   0.041940,   1.096780,  -0.842782, -244.500000, -139.500000, -453.000000,   0.870313, -90.975784, 178.558352,   0.003403,  -0.014294,  -0.712932,   0.701027, 
22959,  -0.212777,  -9.729207,  -0.083943,  -0.361018,  -9.543931,  -0.302692,   0.044838,   1.097231,  -0.843106, -243.000000, -139.500000, -453.000000,   0.874029, -90.967128, 178.642160,   0.002868,  -0.013795,  -0.712889,   0.701083, 
22960,  -0.036990,  -9.787884,  -0.197361,  -0.277688, -10.850414,  -0.228287,   0.034726,   1.080941,  -0.834792, -247.500000, -144.000000, -450.000000,   0.860850, -90.967000, 178.736528,   0.002373,  -0.013127,  -0.712897,   0.701082, 
22961,  -0.256092,  -9.802217,  -0.132119,  -0.461178, -11.856513,  -0.292665,   0.042469,   1.102030,  -0.846742, -244.500000, -138.000000, -454.500000,   0.872126, -90.967016, 178.850992,   0.001603,  -0.012484,  -0.712906,   0.701081, 
22962,  -0.058166,  -9.753148,  -0.186479,  -0.306187, -12.953430,  -0.180869,   0.036861,   1.104748,  -0.840979, -247.500000, -136.500000, -453.000000,   0.863348, -90.967872, 178.961504,   0.000981,  -0.011743,  -0.712921,   0.701075, 
22963,  -0.195462,  -9.734611,  -0.075555,  -0.531942, -13.813704,  -0.354326,   0.030348,   1.094974,  -0.841486, -250.500000, -139.500000, -453.000000,   0.871935, -90.962320, 179.097008,   0.000099,  -0.010952,  -0.712898,   0.701108, 
22964,   0.057813,  -9.801901,  -0.209779,  -0.307875, -15.468741,  -0.341616,   0.035940,   1.089449,  -0.856902, -247.500000, -142.500000, -457.500000,   0.840888, -90.962848, 179.223808,  -0.000482,  -0.009974,  -0.712915,   0.701103, 
22965,  -0.240170,  -9.752607,  -0.151442,  -0.466465, -16.722012,  -0.213811,   0.032716,   1.090175,  -0.837850, -249.000000, -141.000000, -451.500000,   0.849012, -90.961496, 179.378304,  -0.001478,  -0.009062,  -0.712918,   0.701110, 
22966,  -0.085524,  -9.770939,  -0.164137,  -0.429879, -17.769366,  -0.321946,   0.017509,   1.079047,  -0.837385, -256.500000, -144.000000, -451.500000,   0.838694, -90.961792, 179.544032,  -0.002428,  -0.007968,  -0.712935,   0.701107, 
22967,  -0.108177,  -9.798146,  -0.102095,  -0.537083, -18.670484,  -0.310128,   0.012055,   1.079773,  -0.845812, -259.500000, -144.000000, -454.500000,   0.837513, -90.958904, 179.736656,  -0.003599,  -0.006762,  -0.712933,   0.701124, 
22968,  -0.144812,  -9.776532,  -0.134682,  -0.617587, -19.810174,  -0.553672,   0.031219,   1.101853,  -0.854521, -250.500000, -138.000000, -457.500000,   0.833956, -90.958304, 179.923136,  -0.004718,  -0.005580,  -0.712945,   0.701126, 
22969,  -0.118711,  -9.767335,  -0.123399,  -0.538271, -20.520538,  -0.264683,   0.027792,   1.096151,  -0.850237, -252.000000, -139.500000, -456.000000,   0.838827, -90.956672, -179.892512,   0.005876,   0.004463,   0.712942,  -0.701127, 
22970,  -0.083967,  -9.785113,  -0.171480,  -0.638663, -21.945160,  -0.568628,   0.019473,   1.102039,  -0.839035, -256.500000, -136.500000, -453.000000,   0.823723, -90.960280, -179.702384,   0.006946,   0.003187,   0.712966,  -0.701089, 
22971,  -0.269189,  -9.714272,  -0.048353,  -0.693287, -22.335862,  -0.455297,   0.022917,   1.110547,  -0.833667, -255.000000, -133.500000, -451.500000,   0.846650, -90.950872, -179.485152,   0.008417,   0.001977,   0.712909,  -0.701128, 
22972,  -0.053603,  -9.688573,  -0.179057,  -0.747521, -23.725026,  -0.763904,   0.018976,   1.102402,  -0.815770, -256.500000, -135.000000, -445.500000,   0.825852, -90.951168, -179.284288,   0.009517,   0.000600,   0.712912,  -0.701111, 
22973,   0.129230,  -9.807914,  -0.133382,  -0.787758, -24.969526,  -0.607564,   0.016216,   1.097152,  -0.839288, -258.000000, -138.000000, -453.000000,   0.791180, -90.948896, -179.074480,   0.010585,  -0.000916,   0.712899,  -0.701111, 
22974,  -0.143676,  -9.792980,  -0.048651,  -0.960733, -26.834216,  -1.185083,   0.015295,   1.081853,  -0.855211, -258.000000, -144.000000, -457.500000,   0.783756, -90.950832, -178.840608,   0.011969,  -0.002417,   0.712912,  -0.701081, 
22975,  -0.005167,  -9.800949,  -0.089526,  -0.556472, -28.483254,  -0.493385,   0.018210,   1.085111,  -0.845883, -256.500000, -142.500000, -454.500000,   0.774201, -90.940240, -178.599152,   0.013388,  -0.003976,   0.712847,  -0.701128, 
22976,  -0.056861,  -9.861998,  -0.126215,  -0.833916, -30.129086,  -0.646557,   0.016045,   1.096337,  -0.834751, -258.000000, -138.000000, -451.500000,   0.768434, -90.945536, -178.345408,   0.014904,  -0.005591,   0.712861,  -0.701058, 
22977,   0.048683,  -9.776186,  -0.177633,  -0.823984, -32.103546,  -0.569355,   0.001726,   1.094894,  -0.837669, -265.500000, -138.000000, -453.000000,   0.742941, -90.948760, -178.077248,   0.016386,  -0.007415,   0.712860,  -0.701000, 
22978,  -0.045873,  -9.768336,  -0.061479,  -0.734345, -33.428254,  -0.383033,  -0.009523,   1.094717,  -0.845448, -271.500000, -138.000000, -456.000000,   0.733687, -90.945632, -177.772912,   0.018190,  -0.009364,   0.712817,  -0.700974, 
22979,  -0.046279,  -9.804811,  -0.148852,  -0.866567, -34.701780,  -0.729125,  -0.015506,   1.090193,  -0.849915, -274.500000, -139.500000, -457.500000,   0.720300, -90.945472, -177.453040,   0.020064,  -0.011436,   0.712791,  -0.700929, 
22980,  -0.095044,  -9.753153,  -0.173967,  -0.832215, -35.527900,  -0.482336,  -0.005924,   1.101233,  -0.854269, -270.000000, -136.500000, -459.000000,   0.721215, -90.946224, -177.126352,   0.022067,  -0.013463,   0.712766,  -0.700870, 
22981,  -0.133979,  -9.687538,  -0.101032,  -1.090672, -36.543244,  -0.842637,   0.000058,   1.105757,  -0.849802, -267.000000, -135.000000, -457.500000,   0.711252, -90.946088, -176.814992,   0.023909,  -0.015460,   0.712716,  -0.700802, 
22982,   0.019455,  -9.897728,  -0.215704,  -0.557303, -37.245132,  -0.431490,  -0.003743,   1.092814,  -0.855748, -268.500000, -139.500000, -459.000000,   0.701076, -90.949440, -176.504896,   0.025742,  -0.017452,   0.712688,  -0.700713, 
22983,   0.019780,  -9.747825,  -0.112911,  -0.885250, -38.285368,  -0.470990,  -0.020602,   1.095355,  -0.857764, -277.500000, -138.000000, -460.500000,   0.684125, -90.955888, -176.181104,   0.027615,  -0.019571,   0.712675,  -0.700604, 
22984,  -0.058669,  -9.824134,  -0.216236,  -0.744944, -38.891520,  -0.654273,  -0.029450,   1.095992,  -0.842602, -282.000000, -136.500000, -456.000000,   0.673952, -90.961672, -175.834464,   0.029671,  -0.021791,   0.712655,  -0.700493, 
22985,   0.068577,  -9.785315,  -0.078343,  -1.054667, -39.834204,  -0.744057,  -0.033424,   1.082234,  -0.844011, -283.500000, -141.000000, -456.000000,   0.647045, -90.963696, -175.485824,   0.031634,  -0.024124,   0.712586,  -0.700388, 
22986,  -0.032562,  -9.842630,  -0.178283,  -0.707633, -40.305300,  -0.513624,  -0.035483,   1.083049,  -0.876027, -285.000000, -142.500000, -466.500000,   0.642284, -90.966888, -175.126400,   0.033800,  -0.026388,   0.712520,  -0.700262, 
22987,   0.048997,  -9.782793,  -0.120389,  -1.070020, -41.381840,  -0.710802,  -0.029345,   1.085581,  -0.885750, -282.000000, -142.500000, -469.500000,   0.612579, -90.969504, -174.785552,   0.035698,  -0.028690,   0.712450,  -0.700154, 
22988,  -0.063800,  -9.791827,  -0.101170,  -0.767244, -41.949596,  -0.265000,  -0.029500,   1.087573,  -0.871560, -282.000000, -141.000000, -465.000000,   0.615631, -90.963208, -174.434192,   0.037865,  -0.030854,   0.712330,  -0.700088, 
22989,  -0.020531,  -9.840890,  -0.186455,  -0.999431, -42.929892,  -0.720122,  -0.037990,   1.092646,  -0.855820, -286.500000, -138.000000, -460.500000,   0.600500, -90.971760, -174.084176,   0.039907,  -0.033125,   0.712274,  -0.699915, 
22990,  -0.152316,  -9.749529,  -0.092358,  -1.018483, -43.079892,  -0.488017,  -0.041246,   1.087759,  -0.856074, -288.000000, -139.500000, -460.500000,   0.615526, -90.970592, -173.712048,   0.042273,  -0.035345,   0.712155,  -0.699779, 
22991,  -0.071023,  -9.770920,  -0.206259,  -1.049509, -43.650256,  -0.707363,  -0.048710,   1.097719,  -0.867559, -292.500000, -136.500000, -465.000000,   0.605353, -90.979768, -173.349584,   0.044420,  -0.037664,   0.712095,  -0.699592, 
22992,  -0.194478,  -9.780698,  -0.080891,  -1.080952, -43.365816,  -0.763577,  -0.059381,   1.111211,  -0.850341, -298.500000, -130.500000, -460.500000,   0.623161, -90.979992, -172.965568,   0.046875,  -0.039942,   0.711983,  -0.699440, 
22993,   0.156414,  -9.782579,  -0.152637,  -1.058079, -43.631960,  -0.611400,  -0.060986,   1.092655,  -0.848113, -298.500000, -136.500000, -459.000000,   0.588771, -90.985160, -172.604128,   0.048865,  -0.042399,   0.711863,  -0.699262, 
22994,  -0.039654,  -9.775930,  -0.122225,  -0.816020, -43.463336,  -0.579629,  -0.063901,   1.089397,  -0.857442, -300.000000, -138.000000, -462.000000,   0.584760, -90.986320, -172.233696,   0.051100,  -0.044725,   0.711724,  -0.699092, 
22995,   0.166090,  -9.809113,  -0.203927,  -1.036600, -43.223608,  -0.769265,  -0.070852,   1.101800,  -0.882540, -304.500000, -135.000000, -471.000000,   0.545951, -90.998832, -171.886720,   0.052971,  -0.047122,   0.711651,  -0.698879, 
22996,   0.069646,  -9.750921,  -0.145000,  -1.099536, -42.617892,  -0.637355,  -0.073937,   1.097728,  -0.887331, -306.000000, -136.500000, -472.500000,   0.527963, -91.004400, -171.537248,   0.054989,  -0.049406,   0.711539,  -0.698697, 
22997,   0.137622,  -9.784107,  -0.242483,  -1.026121, -42.137608,  -0.619310,  -0.071911,   1.091300,  -0.874619, -304.500000, -138.000000, -468.000000,   0.488583, -91.020392, -171.212432,   0.056717,  -0.051670,   0.711468,  -0.698451, 
22998,   0.127444,  -9.785240,  -0.246101,  -0.993653, -41.452520,  -0.580672,  -0.075151,   1.089220,  -0.865221, -306.000000, -138.000000, -465.000000,   0.459351, -91.034280, -170.893584,   0.058472,  -0.053834,   0.711390,  -0.698217, 
22999,   0.170728,  -9.778872,  -0.269381,  -0.816155, -40.856500,  -0.498504,  -0.077861,   1.092389,  -0.859782, -307.500000, -136.500000, -463.500000,   0.425612, -91.049208, -170.586160,   0.060128,  -0.055956,   0.711320,  -0.697985, 
23000,   0.086819,  -9.794710,  -0.149623,  -0.962995, -40.082492,  -0.547291,  -0.082753,   1.103978,  -0.852864, -310.500000, -132.000000, -462.000000,   0.407121, -91.057592, -170.278640,   0.061883,  -0.057983,   0.711217,  -0.697787, 
23001,   0.162078,  -9.816095,  -0.254126,  -0.883376, -39.860708,  -0.629502,  -0.094328,   1.104979,  -0.841915, -316.500000, -130.500000, -459.000000,   0.371189, -91.071432, -169.977328,   0.063487,  -0.060079,   0.711127,  -0.697555, 
23002,   0.106837,  -9.770514,  -0.176015,  -0.991439, -39.477292,  -0.502040,  -0.097772,   1.096471,  -0.847284, -318.000000, -133.500000, -460.500000,   0.354087, -91.079576, -169.665472,   0.065275,  -0.062123,   0.710996,  -0.697334, 
23003,   0.058865,  -9.795687,  -0.199406,  -0.843952, -39.390608,  -0.881804,  -0.101062,   1.085971,  -0.866842, -319.500000, -138.000000, -466.500000,   0.325498, -91.090360, -169.368592,   0.066898,  -0.064145,   0.710882,  -0.697112, 
23004,   0.052790,  -9.776239,  -0.157536,  -1.007443, -38.499004,  -0.554459,  -0.109430,   1.083439,  -0.884598, -324.000000, -139.500000, -472.500000,   0.319576, -91.092384, -169.067872,   0.068689,  -0.066048,   0.710724,  -0.696929, 
23005,  -0.067738,  -9.726587,  -0.219778,  -1.133644, -38.295920,  -0.909062,  -0.103105,   1.089592,  -0.889206, -321.000000, -138.000000, -474.000000,   0.309598, -91.102464, -168.784608,   0.070345,  -0.067872,   0.710623,  -0.696709, 
23006,  -0.162471,  -9.785777,  -0.279541,  -0.901519, -37.342928,  -0.576267,  -0.099677,   1.095293,  -0.893490, -319.500000, -136.500000, -475.500000,   0.327384, -91.111832, -168.514080,   0.072093,  -0.069447,   0.710522,  -0.696466, 
23007,  -0.076009,  -9.766589,  -0.263736,  -0.908407, -36.865024,  -0.480822,  -0.105660,   1.090769,  -0.897956, -322.500000, -138.000000, -477.000000,   0.328710, -91.126760, -168.259088,   0.073642,  -0.071029,   0.710453,  -0.696206, 
23008,  -0.131657,  -9.752187,  -0.296993,  -0.642109, -36.211360,  -0.100752,  -0.110023,   1.107608,  -0.894999, -325.500000, -132.000000, -477.000000,   0.337313, -91.139848, -168.006880,   0.075219,  -0.072548,   0.710378,  -0.695954, 
23009,  -0.012826,  -9.734962,  -0.178784,  -0.703380, -35.361128,  -0.088255,  -0.123763,   1.119835,  -0.872919, -333.000000, -126.000000, -471.000000,   0.336958, -91.143840, -167.744368,   0.076808,  -0.074181,   0.710237,  -0.695758, 
23010,   0.003799,  -9.814303,  -0.237010,  -0.727073, -34.415236,  -0.296053,  -0.131318,   1.102367,  -0.855853, -336.000000, -130.500000, -465.000000,   0.333852, -91.152936, -167.481872,   0.078377,  -0.075833,   0.710125,  -0.695532, 
23011,   0.066643,  -9.670025,  -0.245820,  -0.854167, -33.726956,  -0.672022,  -0.133094,   1.082996,  -0.849088, -336.000000, -136.500000, -462.000000,   0.318534, -91.164600, -167.231664,   0.079793,  -0.077485,   0.710019,  -0.695299, 
23012,  -0.093491,  -9.753010,  -0.254808,  -0.954281, -33.199684,  -1.016710,  -0.139265,   1.074851,  -0.858670, -339.000000, -139.500000, -465.000000,   0.315985, -91.176504, -166.980160,   0.081294,  -0.079066,   0.709912,  -0.695045, 
23013,  -0.074273,  -9.803750,  -0.339289,  -0.716172, -32.880798,  -0.593581,  -0.135683,   1.078561,  -0.877144, -337.500000, -139.500000, -471.000000,   0.319130, -91.194288, -166.749568,   0.082700,  -0.080488,   0.709859,  -0.694765, 
23014,  -0.225845,  -9.744770,  -0.265821,  -0.650781, -32.796966,  -0.405708,  -0.129186,   1.085528,  -0.886290, -334.500000, -138.000000, -474.000000,   0.340619, -91.208000, -166.531792,   0.084143,  -0.081717,   0.709803,  -0.694506, 
23015,  -0.134608,  -9.762161,  -0.258399,  -0.660160, -32.554810,  -0.215847,  -0.134266,   1.093496,  -0.884487, -337.500000, -135.000000, -474.000000,   0.354590, -91.212768, -166.317120,   0.085527,  -0.082966,   0.709690,  -0.694309, 
23016,  -0.231937,  -9.791034,  -0.160849,  -0.714396, -32.299156,  -0.502000,  -0.128657,   1.090778,  -0.890250, -334.500000, -136.500000, -475.500000,   0.379105, -91.213800, -166.113232,   0.086914,  -0.084081,   0.709569,  -0.694135, 
23017,  -0.177133,  -9.749597,  -0.142773,  -0.858535, -31.852956,  -0.677455,  -0.131009,   1.098383,  -0.884233, -336.000000, -133.500000, -474.000000,   0.396435, -91.211872, -165.914064,   0.088229,  -0.085208,   0.709427,  -0.693985, 
23018,  -0.100783,  -9.826057,  -0.044223,  -0.659157, -31.889074,  -0.302641,  -0.150920,   1.102465,  -0.871735, -346.500000, -130.500000, -471.000000,   0.401047, -91.201648, -165.693168,   0.089602,  -0.086538,   0.709196,  -0.693866, 
23019,  -0.080738,  -9.788187,   0.060935,  -0.738667, -31.242392,  -0.286226,  -0.160861,   1.086989,  -0.867958, -351.000000, -135.000000, -469.500000,   0.416166, -91.182952, -165.458816,   0.091128,  -0.087882,   0.708911,  -0.693780, 
23020,  -0.055700,  -9.758373,   0.004551,  -0.815688, -31.276642,  -0.641602,  -0.161886,   1.082102,  -0.840733, -351.000000, -135.000000, -460.500000,   0.406958, -91.160776, -165.230096,   0.092473,  -0.089334,   0.708591,  -0.693740, 
23021,  -0.141549,  -9.777791,  -0.029740,  -0.772332, -30.824334,  -0.503511,  -0.158288,   1.088618,  -0.849555, -349.500000, -133.500000, -463.500000,   0.421871, -91.140984, -165.005888,   0.093938,  -0.090614,   0.708308,  -0.693668, 
23022,  -0.003128,  -9.790832,  -0.132586,  -0.713458, -30.484992,  -0.609005,  -0.155048,   1.090699,  -0.858954, -348.000000, -133.500000, -466.500000,   0.417326, -91.138680, -164.809280,   0.095102,  -0.091855,   0.708137,  -0.693527, 
23023,  -0.150141,  -9.762657,  -0.239630,  -0.577516, -30.380784,  -0.269142,  -0.163571,   1.090159,  -0.862519, -352.500000, -133.500000, -468.000000,   0.423189, -91.140896, -164.604496,   0.096377,  -0.093088,   0.707995,  -0.693343, 
23024,  -0.123718,  -9.738847,  -0.178302,  -0.632341, -30.057000,  -0.374231,  -0.168291,   1.102562,  -0.860139, -355.500000, -129.000000, -468.000000,   0.429899, -91.142872, -164.399920,   0.097654,  -0.094312,   0.707843,  -0.693150, 
23025,  -0.089938,  -9.785434,  -0.268049,  -0.548189, -29.724376,  -0.233949,  -0.171532,   1.100482,  -0.850740, -357.000000, -129.000000, -465.000000,   0.432057, -91.150592, -164.197744,   0.098883,  -0.095554,   0.707719,  -0.692922, 
23026,  -0.143365,  -9.749916,  -0.220948,  -0.719597, -29.336500,  -0.423311,  -0.169009,   1.093691,  -0.861294, -355.500000, -132.000000, -468.000000,   0.443585, -91.156848, -164.005936,   0.100108,  -0.096673,   0.707603,  -0.692704, 
23027,  -0.051233,  -9.720975,  -0.271914,  -0.846580, -29.076904,  -0.550643,  -0.178045,   1.090708,  -0.851247, -360.000000, -132.000000, -465.000000,   0.445082, -91.168072, -163.809408,   0.101296,  -0.097888,   0.707505,  -0.692460, 
23028,  -0.194680,  -9.775811,  -0.165872,  -0.850059, -28.688404,  -0.735243,  -0.192706,   1.087636,  -0.845089, -367.500000, -132.000000, -463.500000,   0.463704, -91.169936, -163.586176,   0.102758,  -0.099155,   0.707341,  -0.692235, 
23029,  -0.000930,  -9.818272,  -0.317244,  -0.818025, -28.540330,  -0.757402,  -0.189808,   1.088087,  -0.845413, -366.000000, -132.000000, -463.500000,   0.457127, -91.185520, -163.388176,   0.103900,  -0.100432,   0.707261,  -0.691970, 
23030,  -0.274726,  -9.720542,  -0.159940,  -0.824574, -28.705946,  -0.674354,  -0.187439,   1.083289,  -0.841777, -364.500000, -133.500000, -462.000000,   0.479122, -91.185936, -163.181600,   0.105283,  -0.101575,   0.707106,  -0.691764, 
23031,  -0.023368,  -9.801435,  -0.282777,  -0.590095, -28.602772,  -0.492978,  -0.192022,   1.090894,  -0.863239, -367.500000, -132.000000, -469.500000,   0.482344, -91.193960, -162.993312,   0.106432,  -0.102724,   0.706988,  -0.691535, 
23032,  -0.226915,  -9.748506,  -0.162553,  -0.844185, -28.936718,  -0.582937,  -0.191680,   1.092523,  -0.872314, -367.500000, -132.000000, -472.500000,   0.496972, -91.197040, -162.806288,   0.107647,  -0.103792,   0.706846,  -0.691323, 
23033,  -0.053673,  -9.801073,  -0.235068,  -0.730728, -29.603638,  -0.480398,  -0.186413,   1.088176,  -0.869002, -364.500000, -133.500000, -471.000000,   0.500021, -91.201720, -162.630624,   0.108721,  -0.104860,   0.706714,  -0.691122, 
23034,  -0.203702,  -9.739232,  -0.115161,  -0.704999, -30.475454,  -0.478198,  -0.196199,   1.070708,  -0.879415, -369.000000, -139.500000, -474.000000,   0.512313, -91.197784, -162.437280,   0.109966,  -0.105975,   0.706522,  -0.690949, 
23035,  -0.046700,  -9.792350,  -0.174814,  -0.666533, -30.920100,  -0.433457,  -0.211219,   1.063201,  -0.873835, -376.500000, -141.000000, -472.500000,   0.515617, -91.194440, -162.222912,   0.111282,  -0.107273,   0.706306,  -0.690760, 
23036,  -0.132494,  -9.766100,  -0.122320,  -0.837156, -31.703354,  -0.597202,  -0.204706,   1.072975,  -0.873328, -373.500000, -138.000000, -472.500000,   0.521718, -91.191456, -162.013216,   0.112587,  -0.108526,   0.706100,  -0.690571, 
23037,  -0.084677,  -9.735430,  -0.193943,  -0.881074, -32.682084,  -0.658589,  -0.200749,   1.083926,  -0.881572, -372.000000, -135.000000, -475.500000,   0.522729, -91.190720, -161.811456,   0.113810,  -0.109763,   0.705910,  -0.690381, 
23038,  -0.014328,  -9.841671,  -0.098475,  -0.785639, -34.291536,  -0.485965,  -0.206170,   1.090265,  -0.870694, -375.000000, -132.000000, -472.500000,   0.513795, -91.187816, -161.593904,   0.115068,  -0.111154,   0.705673,  -0.690189, 
23039,  -0.030343,  -9.571643,  -0.365164,  -0.547866, -34.586352,  -0.627831,  -0.213025,   1.078862,  -0.862126, -378.000000, -135.000000, -469.500000,   0.511232, -91.174440, -161.351600,   0.116524,  -0.112647,   0.705347,  -0.690023, 
23040,  -0.349290,  -9.639057,  -0.280243,  -1.612290, -37.264852,  -1.287648,  -0.222044,   1.078685,  -0.842427, -382.500000, -133.500000, -463.500000,   0.486824, -91.182208, -161.092128,   0.117928,  -0.114398,   0.705111,  -0.689733, 
23041,   0.207432,  -9.764218,  -0.285622,  -0.375021, -37.830088,   0.073598,  -0.224242,   1.084298,  -0.850600, -384.000000, -132.000000, -466.500000,   0.493245, -91.183256, -160.813168,   0.119645,  -0.116077,   0.704844,  -0.689432, 
23042,  -0.482978,  -9.864285,  -0.261918,  -1.094440, -40.413220,  -0.920138,  -0.239465,   1.070363,  -0.859788, -391.500000, -136.500000, -469.500000,   0.513030, -91.205000, -160.504256,   0.121603,  -0.117882,   0.704685,  -0.688958, 
23043,   0.031944,  -9.749312,  -0.292231,  -0.645534, -40.853436,   0.182259,  -0.242705,   1.068283,  -0.850389, -393.000000, -136.500000, -466.500000,   0.531108, -91.209976, -160.179248,   0.123663,  -0.119777,   0.704398,  -0.688561, 
23044,  -0.333786,  -9.680093,  -0.173926,  -1.372229, -42.477064,  -1.055598,  -0.239636,   1.069549,  -0.855250, -391.500000, -136.500000, -468.000000,   0.544061, -91.223328, -159.858224,   0.125656,  -0.121685,   0.704147,  -0.688109, 
23045,   0.067849,  -9.737686,  -0.266578,  -0.946755, -42.814396,  -0.726193,  -0.252725,   1.079420,  -0.870625, -399.000000, -133.500000, -474.000000,   0.545724, -91.224568, -159.527840,   0.127648,  -0.123706,   0.703801,  -0.687733, 
23046,  -0.138968,  -9.811424,  -0.202662,  -1.323067, -44.461124,  -1.099010,  -0.253238,   1.076977,  -0.857013, -399.000000, -133.500000, -469.500000,   0.538963, -91.242696, -159.191600,   0.129605,  -0.125833,   0.703541,  -0.687257, 
23047,  -0.061932,  -9.698133,  -0.280502,  -1.037495, -45.037904,  -0.688370,  -0.239261,   1.076791,  -0.845020, -391.500000, -133.500000, -465.000000,   0.552711, -91.249408, -158.856240,   0.131693,  -0.127817,   0.703232,  -0.686824, 
23048,  -0.189377,  -9.810406,  -0.322840,  -1.169572, -47.156240,  -0.979847,  -0.242159,   1.076339,  -0.844696, -393.000000, -133.500000, -465.000000,   0.545698, -91.268320, -158.522656,   0.133626,  -0.129927,   0.702954,  -0.686322, 
23049,  -0.054266,  -9.766278,  -0.195508,  -1.027114, -47.429876,  -0.495774,  -0.252692,   1.085033,  -0.851320, -399.000000, -130.500000, -468.000000,   0.565823, -91.271464, -158.161504,   0.135908,  -0.132024,   0.702580,  -0.685851, 
23050,  -0.193889,  -9.700260,  -0.120372,  -1.401485, -48.981752,  -1.458685,  -0.268070,   1.073090,  -0.846318, -406.500000, -133.500000, -466.500000,   0.565308, -91.272856, -157.792128,   0.138114,  -0.134294,   0.702163,  -0.685406, 
23051,  -0.155926,  -9.763335,   0.031539,  -1.101617, -49.760528,  -0.529300,  -0.267728,   1.074719,  -0.855393, -406.500000, -133.500000, -469.500000,   0.589499, -91.243136, -157.398096,   0.140654,  -0.136527,   0.701552,  -0.685083, 
23052,  -0.047329,  -9.823530,   0.068898,  -1.196689, -50.767780,  -0.974687,  -0.264797,   1.080784,  -0.836411, -405.000000, -130.500000, -463.500000,   0.583543, -91.218440, -157.017520,   0.142920,  -0.138859,   0.700931,  -0.684762, 
23053,  -0.009933,  -9.694448,   0.166641,  -1.186863, -51.423480,  -0.464052,  -0.279613,   1.079704,  -0.816064, -412.500000, -129.000000, -457.500000,   0.586803, -91.179064, -156.611312,   0.145415,  -0.141273,   0.700202,  -0.684486, 
23054,   0.018432,  -9.818303,  -0.025034,  -1.025067, -52.493196,  -0.829392,  -0.288682,   1.071107,  -0.825322, -417.000000, -132.000000, -460.500000,   0.574618, -91.161592, -156.195616,   0.147846,  -0.143864,   0.699573,  -0.684084, 
23055,  -0.253468,  -9.783264,  -0.161594,  -1.520419, -53.115576,  -0.993857,  -0.297001,   1.076995,  -0.814120, -421.500000, -129.000000, -457.500000,   0.592985, -91.157200, -155.757264,   0.150578,  -0.146422,   0.699008,  -0.683510, 
23056,  -0.066248,  -9.750055,  -0.314209,  -1.067006, -54.074888,  -0.509838,  -0.306053,   1.071205,  -0.813726, -426.000000, -130.500000, -457.500000,   0.585324, -91.167336, -155.321824,   0.153114,  -0.149136,   0.698495,  -0.682879, 
23057,  -0.346582,  -9.812462,  -0.145194,  -1.268597, -54.483496,  -0.484507,  -0.306616,   1.060342,  -0.829071, -426.000000, -135.000000, -462.000000,   0.614398, -91.169328, -154.872320,   0.155967,  -0.151706,   0.697961,  -0.682227, 
23058,  -0.062286,  -9.839206,  -0.366175,  -0.935155, -54.580596,  -0.186658,  -0.309001,   1.062334,  -0.842359, -427.500000, -135.000000, -466.500000,   0.620558, -91.191592, -154.453120,   0.158469,  -0.154252,   0.697541,  -0.681507, 
23059,  -0.423134,  -9.626431,  -0.235342,  -1.329659, -54.599592,  -0.600380,  -0.311557,   1.063511,  -0.851110, -429.000000, -135.000000, -469.500000,   0.655783, -91.203032, -154.030816,   0.161176,  -0.156626,   0.697077,  -0.680793, 
23060,  -0.067961,  -9.729120,  -0.445814,  -1.102676, -54.254072,  -0.774503,  -0.323833,   1.058447,  -0.831664, -435.000000, -135.000000, -463.500000,   0.660130, -91.223688, -153.620720,   0.163610,  -0.159125,   0.696645,  -0.680084, 
23061,  -0.308738,  -9.791099,  -0.277094,  -1.403140, -54.281144,  -0.987164,  -0.331981,   1.065149,  -0.825000, -439.500000, -132.000000, -462.000000,   0.674986, -91.242896, -153.191808,   0.166219,  -0.161672,   0.696186,  -0.679335, 
23062,   0.066586,  -9.769634,  -0.350282,  -1.187642, -53.565424,  -0.672306,  -0.336701,   1.077553,  -0.822619, -442.500000, -127.500000, -462.000000,   0.674996, -91.264464, -152.773008,   0.168668,  -0.164245,   0.695709,  -0.678583, 
23063,  -0.225493,  -9.735188,  -0.334862,  -1.319886, -53.703904,  -1.141347,  -0.343385,   1.066964,  -0.818589, -445.500000, -130.500000, -460.500000,   0.678160, -91.288960, -152.354848,   0.171127,  -0.166801,   0.695256,  -0.677811, 
23064,  -0.060987,  -9.792585,  -0.440429,  -1.145787, -53.177640,  -0.587596,  -0.347188,   1.054021,  -0.824535, -447.000000, -135.000000, -462.000000,   0.677381, -91.308376, -151.945296,   0.173517,  -0.169321,   0.694779,  -0.677088, 
23065,  -0.085628,  -9.766573,  -0.287217,  -1.265734, -53.345472,  -0.603503,  -0.346300,   1.063706,  -0.827917, -447.000000, -132.000000, -463.500000,   0.664550, -91.325976, -151.553840,   0.175724,  -0.171795,   0.694275,  -0.676399, 
23066,  -0.113045,  -9.752705,  -0.305445,  -1.056485, -52.615784,  -0.460591,  -0.349523,   1.064432,  -0.808866, -448.500000, -130.500000, -457.500000,   0.670476, -91.337320, -151.159920,   0.178066,  -0.174162,   0.693753,  -0.675709, 
23067,  -0.056053,  -9.831717,  -0.275238,  -1.277764, -51.966940,  -0.666173,  -0.360586,   1.067876,  -0.811530, -454.500000, -129.000000, -459.000000,   0.668282, -91.356640, -150.771104,   0.180316,  -0.176560,   0.693273,  -0.674993, 
23068,  -0.181295,  -9.721534,  -0.253998,  -1.322463, -51.036236,  -0.953766,  -0.372178,   1.066070,  -0.810233, -460.500000, -129.000000, -459.000000,   0.681607, -91.367848, -150.376144,   0.182705,  -0.178889,   0.692753,  -0.674284, 
23069,  -0.112814,  -9.758301,  -0.227808,  -1.242689, -50.207204,  -0.965234,  -0.373954,   1.046699,  -0.803469, -460.500000, -135.000000, -456.000000,   0.687484, -91.371584, -149.988480,   0.185013,  -0.181201,   0.692166,  -0.673621, 
23070,  -0.191037,  -9.794340,  -0.061596,  -1.298691, -49.415668,  -1.025279,  -0.377381,   1.040998,  -0.799185, -462.000000, -136.500000, -454.500000,   0.705960, -91.361496, -149.601520,   0.187413,  -0.183411,   0.691519,  -0.673022, 
23071,  -0.150860,  -9.826333,  -0.104793,  -1.213372, -48.961376,  -0.864450,  -0.369622,   1.064893,  -0.801483, -459.000000, -129.000000, -456.000000,   0.720434, -91.354232, -149.234928,   0.189666,  -0.185527,   0.690916,  -0.672444, 
23072,  -0.336187,  -9.694575,  -0.007527,  -1.285378, -48.805800,  -0.820899,  -0.375776,   1.059554,  -0.801412, -462.000000, -130.500000, -456.000000,   0.750956, -91.335536, -148.872416,   0.192006,  -0.187501,   0.690263,  -0.671900, 
23073,  -0.204344,  -9.842434,  -0.227367,  -1.044677, -48.373832,  -0.704203,  -0.385000,   1.052950,  -0.796480, -466.500000, -132.000000, -454.500000,   0.769804, -91.328936, -148.517696,   0.194207,  -0.189513,   0.689665,  -0.671304, 
23074,  -0.354339,  -9.746408,  -0.059633,  -1.380145, -48.314156,  -0.588865,  -0.382444,   1.051772,  -0.787729, -465.000000, -132.000000, -451.500000,   0.793743, -91.320664, -148.160480,   0.196456,  -0.191507,   0.689062,  -0.670703, 
23075,  -0.137336,  -9.736363,  -0.213221,  -0.781316, -47.741312,  -0.402867,  -0.395078,   1.042273,  -0.768861, -471.000000, -133.500000, -445.500000,   0.813779, -91.315352, -147.800512,   0.198693,  -0.193546,   0.688466,  -0.670086, 
23076,  -0.250161,  -9.811691,  -0.205261,  -1.317905, -47.469604,  -0.859405,  -0.403209,   1.051781,  -0.752544, -475.500000, -129.000000, -441.000000,   0.823522, -91.323696, -147.431344,   0.200894,  -0.195720,   0.687902,  -0.669373, 
23077,  -0.191152,  -9.757910,  -0.266162,  -1.154953, -46.469032,  -0.532329,  -0.398536,   1.071604,  -0.759632, -474.000000, -123.000000, -444.000000,   0.843266, -91.329056, -147.066624,   0.203131,  -0.197800,   0.687335,  -0.668657, 
23078,  -0.226617,  -9.704071,  -0.223898,  -1.319272, -46.037636,  -0.710203,  -0.413417,   1.059298,  -0.777895, -481.500000, -127.500000, -450.000000,   0.851401, -91.337976, -146.725136,   0.205156,  -0.199816,   0.686809,  -0.667982, 
23079,  -0.115600,  -9.811522,  -0.201898,  -0.960924, -45.090876,  -0.575330,  -0.425897,   1.047806,  -0.773216, -487.500000, -130.500000, -448.500000,   0.862204, -91.337528, -146.384592,   0.207207,  -0.201795,   0.686235,  -0.667359, 
23080,  -0.236632,  -9.784402,  -0.221404,  -1.197080, -44.512580,  -0.859689,  -0.425726,   1.048621,  -0.777754, -487.500000, -130.500000, -450.000000,   0.870679, -91.344448, -146.054352,   0.209167,  -0.203734,   0.685705,  -0.666700, 
23081,  -0.216772,  -9.697011,  -0.228541,  -0.997489, -43.587740,  -0.636056,  -0.416161,   1.056854,  -0.791761, -483.000000, -129.000000, -454.500000,   0.891139, -91.341264, -145.745424,   0.211090,  -0.205455,   0.685165,  -0.666109, 
23082,  -0.352043,  -9.835744,  -0.324595,  -1.045619, -43.057028,  -0.669705,  -0.418154,   1.068895,  -0.785167, -484.500000, -124.500000, -453.000000,   0.908380, -91.352056, -145.464080,   0.212807,  -0.207056,   0.684751,  -0.665491, 
23083,  -0.346670,  -9.752103,  -0.190596,  -0.997576, -41.807088,  -0.334629,  -0.436397,   1.062113,  -0.760536, -493.500000, -124.500000, -445.500000,   0.943608, -91.346688, -145.162272,   0.214780,  -0.208644,   0.684239,  -0.664897, 
23084,  -0.232264,  -9.815822,  -0.282770,  -1.022478, -40.716568,  -0.674284,  -0.430943,   1.061387,  -0.752109, -490.500000, -124.500000, -442.500000,   0.961759, -91.357816, -144.866544,   0.216585,  -0.210327,   0.683804,  -0.664247, 
23085,  -0.405669,  -9.709270,  -0.215793,  -1.112629, -39.620696,  -0.767011,  -0.433312,   1.066186,  -0.755744, -492.000000, -123.000000, -444.000000,   0.992824, -91.357728, -144.578240,   0.218438,  -0.211864,   0.683321,  -0.663634, 
23086,  -0.378585,  -9.820921,  -0.328454,  -0.881041, -38.755680,  -0.630151,  -0.451400,   1.057412,  -0.745303, -501.000000, -124.500000, -441.000000,   1.024622, -91.363248, -144.292976,   0.220266,  -0.213389,   0.682878,  -0.662989, 
23087,  -0.250775,  -9.717443,  -0.288415,  -0.894051, -38.275520,  -0.288150,  -0.441038,   1.047904,  -0.734142, -495.000000, -127.500000, -436.500000,   1.035213, -91.369192, -144.015504,   0.221923,  -0.214992,   0.682413,  -0.662397, 
23088,  -0.309951,  -9.748907,  -0.224025,  -0.824760, -37.671824,  -0.494235,  -0.435397,   1.050799,  -0.720600, -492.000000, -126.000000, -432.000000,   1.058966, -91.369552, -143.689072,   0.223950,  -0.216799,   0.681849,  -0.661718, 
23089,  -0.211981,  -9.783708,  -0.330073,  -0.918325, -37.289020,  -0.479762,  -0.444091,   1.049444,  -0.719628, -496.500000, -126.000000, -432.000000,   1.067107, -91.381584, -143.314144,   0.226140,  -0.219007,   0.681225,  -0.660898, 
23090,  -0.416880,  -9.731811,  -0.145663,  -0.972074, -36.703516,  -0.818069,  -0.458051,   1.052437,  -0.721968, -504.000000, -124.500000, -433.500000,   1.099190, -91.375848, -142.985136,   0.228235,  -0.220762,   0.680613,  -0.660208, 
23091,  -0.216616,  -9.783877,  -0.229779,  -0.952371, -36.436356,  -0.752185,  -0.463676,   1.052348,  -0.725857, -507.000000, -124.500000, -435.000000,   1.113244, -91.374792, -142.718960,   0.229853,  -0.222258,   0.680118,  -0.659652, 
23092,  -0.484763,  -9.798822,  -0.187526,  -1.055122, -36.400352,  -0.717865,  -0.458939,   1.042751,  -0.718585, -504.000000, -127.500000, -432.000000,   1.147283, -91.370864, -142.402320,   0.231884,  -0.223933,   0.679547,  -0.658971, 
23093,  -0.444185,  -9.706234,  -0.175357,  -0.828989, -36.070544,  -0.483238,  -0.463034,   1.036598,  -0.686499, -505.500000, -127.500000, -421.500000,   1.189623, -91.355024, -142.038384,   0.234259,  -0.225816,   0.678833,  -0.658246, 
23094,  -0.546681,  -9.763022,  -0.238717,  -0.953636, -35.679752,  -0.660430,  -0.468472,   1.040131,  -0.685273, -508.500000, -126.000000, -421.500000,   1.227230, -91.346296, -141.678080,   0.236563,  -0.227711,   0.678134,  -0.657470, 
23095,  -0.409351,  -9.774996,  -0.136783,  -0.748308, -34.824340,  -0.286149,  -0.476465,   1.044841,  -0.692799, -513.000000, -124.500000, -424.500000,   1.269062, -91.326280, -141.324368,   0.238876,  -0.229519,   0.677392,  -0.656764, 
23096,  -0.556753,  -9.742549,  -0.104221,  -1.058846, -34.213288,  -0.966247,  -0.482978,   1.035067,  -0.693306, -516.000000, -127.500000, -424.500000,   1.312376, -91.313040, -140.976352,   0.241152,  -0.231299,   0.676706,  -0.656024, 
23097,  -0.453944,  -9.808274,  -0.256942,  -0.716766, -33.411206,  -0.521784,  -0.478600,   1.021034,  -0.686611, -513.000000, -132.000000, -421.500000,   1.356258, -91.302632, -140.635056,   0.243386,  -0.233042,   0.676052,  -0.655279, 
23098,  -0.590128,  -9.703418,  -0.100312,  -1.132477, -32.995018,  -1.084660,  -0.477541,   1.031534,  -0.694531, -513.000000, -129.000000, -424.500000,   1.405765, -91.291792, -140.298736,   0.245617,  -0.234714,   0.675395,  -0.654511, 
23099,  -0.404477,  -9.838072,  -0.229446,  -0.750285, -32.495994,  -0.740872,  -0.485347,   1.039865,  -0.696942, -517.500000, -126.000000, -426.000000,   1.440319, -91.283600, -139.967680,   0.247724,  -0.236445,   0.674732,  -0.653765, 
23100,  -0.447039,  -9.737078,  -0.107530,  -0.936495, -32.210582,  -0.676932,  -0.491126,   1.041769,  -0.686641, -520.500000, -124.500000, -423.000000,   1.467074, -91.272848, -139.641088,   0.249765,  -0.238190,   0.674049,  -0.653061, 
23101,  -0.365116,  -9.784066,  -0.121706,  -0.777489, -31.775454,  -0.754479,  -0.491143,   1.038962,  -0.696294, -520.500000, -126.000000, -426.000000,   1.489494, -91.256976, -139.318528,   0.251768,  -0.239925,   0.673337,  -0.652404, 
23102,  -0.402635,  -9.742540,  -0.126678,  -0.786433, -31.756002,  -0.432223,  -0.480985,   1.023026,  -0.699900, -514.500000, -132.000000, -426.000000,   1.511101, -91.243216, -138.999376,   0.253737,  -0.241643,   0.672628,  -0.651728, 
23103,  -0.456014,  -9.778310,  -0.159560,  -0.821863, -31.871756,  -0.469481,  -0.486764,   1.024930,  -0.689599, -517.500000, -130.500000, -423.000000,   1.529935, -91.229208, -138.680128,   0.255688,  -0.243375,   0.671906,  -0.651052, 
23104,  -0.424020,  -9.712302,  -0.134489,  -0.851276, -31.391908,  -0.583121,  -0.495100,   1.028011,  -0.688050, -522.000000, -129.000000, -423.000000,   1.558435, -91.209120, -138.362368,   0.257700,  -0.245028,   0.671172,  -0.650392, 
23105,  -0.350181,  -9.701598,  -0.013538,  -0.791535, -31.445904,  -0.679155,  -0.495629,   1.022761,  -0.684090, -522.000000, -130.500000, -421.500000,   1.566884, -91.187504, -138.046464,   0.259590,  -0.246782,   0.670394,  -0.649790, 
23106,  -0.476865,  -9.836465,   0.017294,  -0.754274, -31.115800,  -0.472712,  -0.498682,   1.024301,  -0.669576, -523.500000, -129.000000, -417.000000,   1.599644, -91.152136, -137.731360,   0.261643,  -0.248357,   0.669584,  -0.649206, 
23107,  -0.188735,  -9.749577,   0.013009,  -0.761965, -30.999378,  -0.322778,  -0.503573,   1.035890,  -0.662658, -526.500000, -124.500000, -415.500000,   1.600532, -91.126184, -137.420784,   0.263460,  -0.250103,   0.668756,  -0.648636, 
23108,  -0.475129,  -9.709474,   0.044541,  -0.715711, -30.734706,  -0.735308,  -0.509899,   1.029737,  -0.658049, -529.500000, -126.000000, -414.000000,   1.627101, -91.089776, -137.109248,   0.265454,  -0.251682,   0.667921,  -0.648064, 
23109,  -0.136417,  -9.819623,  -0.247501,  -0.668209, -31.070756,  -0.323014,  -0.510428,   1.024487,  -0.654090, -529.500000, -127.500000, -412.500000,   1.614087, -91.084056, -136.800064,   0.267140,  -0.253545,   0.667181,  -0.647412, 
23110,  -0.338142,  -9.702804,  -0.027023,  -0.849332, -31.187068,  -0.535946,  -0.507718,   1.021318,  -0.659529, -528.000000, -129.000000, -414.000000,   1.618236, -91.066648, -136.486848,   0.268974,  -0.255306,   0.666403,  -0.646777, 
23111,  -0.088411,  -9.795616,  -0.233553,  -0.533061, -31.348310,  -0.613653,  -0.513001,   1.022858,  -0.672493, -531.000000, -129.000000, -418.500000,   1.603489, -91.068280, -136.173008,   0.270655,  -0.257217,   0.665675,  -0.646061, 
23112,  -0.336638,  -9.797276,  -0.071339,  -0.899064, -31.899336,  -0.679693,  -0.519309,   1.019512,  -0.658233, -534.000000, -129.000000, -414.000000,   1.603644, -91.059232, -135.853776,   0.272473,  -0.259046,   0.664900,  -0.645351, 
23113,  -0.105077,  -9.819086,  -0.287398,  -0.781264, -32.102978,  -0.438331,  -0.514573,   1.009915,  -0.650961, -531.000000, -132.000000, -411.000000,   1.591204, -91.064832, -135.533424,   0.274192,  -0.260988,   0.664177,  -0.644585, 
23114,  -0.141964,  -9.666698,  -0.168946,  -0.860552, -33.179310,  -0.467030,  -0.516241,   1.020778,  -0.663094, -532.500000, -129.000000, -415.500000,   1.567889, -91.069816, -135.206528,   0.275887,  -0.263029,   0.663412,  -0.643835, 
23115,  -0.055392,  -9.855869,  -0.317741,  -0.609368, -33.820064,  -0.406023,  -0.522892,   1.015802,  -0.639759, -535.500000, -129.000000, -408.000000,   1.544740, -91.080104, -134.871008,   0.277616,  -0.265128,   0.662647,  -0.643025, 
23116,  -0.157958,  -9.769150,  -0.332611,  -1.026144, -34.354948,  -0.820453,  -0.525928,   1.020149,  -0.615592, -537.000000, -126.000000, -400.500000,   1.530170, -91.107120, -134.528864,   0.279386,  -0.267251,   0.661965,  -0.642067, 
23117,  -0.251592,  -9.748528,  -0.412377,  -0.710906, -35.449032,  -0.662360,  -0.530648,   1.032552,  -0.613212, -540.000000, -121.500000, -400.500000,   1.517892, -91.132032, -134.178208,   0.281221,  -0.269406,   0.661255,  -0.641096, 
23118,  -0.224199,  -9.805320,  -0.439359,  -0.754124, -36.274092,  -0.242347,  -0.528109,   1.028569,  -0.614113, -538.500000, -123.000000, -400.500000,   1.508584, -91.159960, -133.820880,   0.283102,  -0.271591,   0.660552,  -0.640085, 
23119,  -0.206608,  -9.778975,  -0.380652,  -1.064110, -37.205664,  -0.674252,  -0.531161,   1.030109,  -0.599599, -540.000000, -121.500000, -396.000000,   1.496791, -91.186360, -133.453280,   0.285025,  -0.273842,   0.659800,  -0.639054, 
23120,  -0.265323,  -9.701871,  -0.369365,  -1.012586, -38.170448,  -0.670519,  -0.542753,   1.028303,  -0.598303, -546.000000, -121.500000, -396.000000,   1.495269, -91.206048, -133.074520,   0.287077,  -0.276076,   0.658991,  -0.637993, 
23121,  -0.175428,  -9.781303,  -0.326389,  -0.795049, -39.284520,  -0.406521,  -0.544625,   1.032739,  -0.625204, -547.500000, -121.500000, -405.000000,   1.483902, -91.219456, -132.687024,   0.289136,  -0.278401,   0.658102,  -0.636972, 
23122,  -0.343943,  -9.819191,  -0.345244,  -1.022028, -40.003180,  -0.720590,  -0.539204,   1.026400,  -0.636082, -544.500000, -124.500000, -408.000000,   1.491796, -91.239888, -132.288952,   0.291345,  -0.280697,   0.657272,  -0.635834, 
23123,  -0.216824,  -9.798367,  -0.381791,  -0.745453, -40.447060,  -0.418893,  -0.549299,   1.012916,  -0.618115, -549.000000, -127.500000, -402.000000,   1.489888, -91.257920, -131.887144,   0.293516,  -0.283055,   0.656375,  -0.634706, 
23124,  -0.431575,  -9.678308,  -0.285015,  -1.048407, -40.946412,  -0.789857,  -0.558865,   1.004683,  -0.604108, -553.500000, -129.000000, -397.500000,   1.509385, -91.269984, -131.478792,   0.295854,  -0.285312,   0.655471,  -0.633531, 
23125,  -0.444520,  -9.851301,  -0.513623,  -0.929545, -41.332932,  -0.552699,  -0.550154,   1.008844,  -0.595428, -549.000000, -127.500000, -394.500000,   1.527078, -91.292720, -131.066896,   0.298174,  -0.287629,   0.654615,  -0.632291, 
23126,  -0.469921,  -9.581193,  -0.309431,  -1.088286, -41.470100,  -0.582027,  -0.556292,   1.006312,  -0.585705, -552.000000, -127.500000, -391.500000,   1.557333, -91.304368, -130.651400,   0.300607,  -0.289864,   0.653710,  -0.631062, 
23127,  -0.369425,  -9.788718,  -0.435905,  -1.204551, -42.196244,  -0.957865,  -0.567713,   1.005320,  -0.588946, -558.000000, -127.500000, -393.000000,   1.565873, -91.321584, -130.231656,   0.302918,  -0.292251,   0.652752,  -0.629828, 
23128,  -0.337049,  -9.759793,  -0.207054,  -1.165239, -42.324472,  -0.693786,  -0.569381,   1.016183,  -0.601080, -559.500000, -124.500000, -397.500000,   1.585130, -91.324056, -129.805752,   0.305359,  -0.294575,   0.651724,  -0.628632, 
23129,  -0.295829,  -9.853673,  -0.409696,  -1.110715, -43.435568,  -0.499221,  -0.566296,   1.020256,  -0.596288, -558.000000, -123.000000, -396.000000,   1.584804, -91.345944, -129.377000,   0.307655,  -0.297077,   0.650748,  -0.627372, 
23130,  -0.281152,  -9.644382,  -0.108001,  -0.836626, -43.801044,  -0.524935,  -0.578384,   1.018813,  -0.571728, -564.000000, -121.500000, -388.500000,   1.605423, -91.337408, -128.938968,   0.310183,  -0.299420,   0.649602,  -0.626172, 
23131,  -0.312996,  -9.935418,  -0.478601,  -1.201500, -44.987832,  -1.022900,  -0.587591,   1.015015,  -0.557143, -568.500000, -121.500000, -384.000000,   1.600747, -91.359072, -128.493656,   0.312531,  -0.302027,   0.648539,  -0.624853, 
23132,  -0.114499,  -9.637959,  -0.111476,  -1.052572, -45.632036,  -0.324865,  -0.588308,   1.006144,  -0.558298, -568.500000, -124.500000, -384.000000,   1.600784, -91.351512, -128.038592,   0.315035,  -0.304583,   0.647303,  -0.623658, 
23133,  -0.338571,  -9.843596,  -0.369090,  -1.345609, -46.442528,  -1.042597,  -0.591719,   1.003249,  -0.544361, -570.000000, -124.500000, -379.500000,   1.598064, -91.362976, -127.576680,   0.317497,  -0.307233,   0.646118,  -0.622319, 
23134,  -0.119540,  -9.706777,  -0.273265,  -0.977968, -46.789132,  -0.422928,  -0.581186,   0.994555,  -0.537737, -564.000000, -127.500000, -376.500000,   1.595845, -91.370616, -127.108720,   0.320002,  -0.309902,   0.644892,  -0.620979, 
23135,  -0.424014,  -9.855917,  -0.335637,  -1.265928, -47.611904,  -0.830417,  -0.585581,   1.005781,  -0.554085, -567.000000, -124.500000, -382.500000,   1.600430, -91.381896, -126.634800,   0.322567,  -0.312578,   0.643687,  -0.619583, 
23136,  -0.163211,  -9.637915,  -0.346724,  -1.134137, -47.774872,  -0.163667,  -0.597344,   1.003160,  -0.548251, -573.000000, -124.500000, -381.000000,   1.607276, -91.396144, -126.158408,   0.325135,  -0.315250,   0.642470,  -0.618130, 
23137,  -0.324731,  -9.898914,  -0.310270,  -1.037321, -48.426984,  -0.850115,  -0.595505,   0.993112,  -0.540655, -571.500000, -127.500000, -378.000000,   1.602215, -91.404616, -125.677312,   0.327675,  -0.317996,   0.641172,  -0.616726, 
23138,  -0.202605,  -9.689240,  -0.306922,  -1.370956, -48.290684,  -0.245064,  -0.597840,   1.003523,  -0.524986, -573.000000, -123.000000, -373.500000,   1.610320, -91.415216, -125.194256,   0.330292,  -0.320688,   0.639914,  -0.615265, 
23139,  -0.278359,  -9.748965,  -0.261035,  -1.066210, -48.301608,  -1.088021,  -0.604525,   0.992935,  -0.520956, -576.000000, -126.000000, -372.000000,   1.607520, -91.414432, -124.709224,   0.332875,  -0.323402,   0.638530,  -0.613866, 
23140,  -0.177758,  -9.709271,  -0.393505,  -1.173008, -48.283340,  -0.460327,  -0.608311,   0.982798,  -0.517249, -577.500000, -129.000000, -370.500000,   1.602910, -91.425760, -124.225016,   0.335408,  -0.326155,   0.637205,  -0.612404, 
23141,  -0.421757,  -9.728285,  -0.335533,  -1.096140, -48.213764,  -0.932071,  -0.611926,   0.973475,  -0.518080, -579.000000, -132.000000, -370.500000,   1.606519, -91.429848, -123.740168,   0.338010,  -0.328846,   0.635862,  -0.610955, 
23142,  -0.274932,  -9.781442,  -0.458606,  -1.003044, -47.580544,  -0.376344,  -0.608653,   0.981169,  -0.508174, -577.500000, -129.000000, -367.500000,   1.613753, -91.445048, -123.260960,   0.340551,  -0.331502,   0.634571,  -0.609419, 
23143,  -0.368056,  -9.731690,  -0.316250,  -1.172387, -47.422556,  -0.872438,  -0.613544,   0.992758,  -0.501256, -580.500000, -124.500000, -366.000000,   1.617723, -91.457000, -122.784528,   0.343069,  -0.334152,   0.633262,  -0.607920, 
23144,  -0.396348,  -9.814121,  -0.415271,  -1.077436, -46.442432,  -0.513597,  -0.625478,   0.989323,  -0.490885, -586.500000, -124.500000, -363.000000,   1.640151, -91.466832, -122.314824,   0.345655,  -0.336659,   0.632012,  -0.606394, 
23145,  -0.313489,  -9.684670,  -0.298303,  -0.996046, -46.015276,  -0.444190,  -0.622393,   0.993395,  -0.486094, -585.000000, -123.000000, -361.500000,   1.647225, -91.480288, -121.853496,   0.348086,  -0.339197,   0.630732,  -0.604891, 
23146,  -0.478934,  -9.849960,  -0.347452,  -1.149311, -45.027916,  -0.524068,  -0.616597,   0.994298,  -0.486742, -582.000000, -123.000000, -361.500000,   1.673537, -91.487080, -121.397672,   0.350612,  -0.341583,   0.629489,  -0.603381, 
23147,  -0.290882,  -9.758792,  -0.210840,  -1.116072, -44.281048,  -0.580057,  -0.627392,   0.974750,  -0.460278, -586.500000, -127.500000, -352.500000,   1.690120, -91.489984, -120.950656,   0.353049,  -0.343962,   0.628225,  -0.601950, 
23148,  -0.564387,  -9.798802,  -0.343333,  -1.000496, -43.880972,  -0.571675,  -0.629386,   0.986791,  -0.453683, -588.000000, -123.000000, -351.000000,   1.718380, -91.489752, -120.508720,   0.355515,  -0.346225,   0.626966,  -0.600486, 
23149,  -0.218833,  -9.608414,  -0.200758,  -1.052827, -43.052332,  -0.331253,  -0.631054,   0.997654,  -0.465817, -589.500000, -120.000000, -355.500000,   1.733095, -91.479936, -120.073328,   0.357902,  -0.348495,   0.625637,  -0.599136, 
23150,  -0.467231,  -9.837747,  -0.268274,  -1.366999, -42.796728,  -0.939379,  -0.635011,   0.986702,  -0.457573, -591.000000, -123.000000, -352.500000,   1.739510, -91.475608, -119.641488,   0.360209,  -0.350807,   0.624323,  -0.597793, 
23151,  -0.150939,  -9.594464,  -0.223849,  -0.872157, -41.282568,  -0.341335,  -0.629915,   0.981541,  -0.449724, -588.000000, -124.500000, -349.500000,   1.750093, -91.461824, -119.218200,   0.362511,  -0.353009,   0.622979,  -0.596495, 
23152,  -0.363027,  -9.910723,  -0.337777,  -1.051456, -41.312840,  -1.127113,  -0.638951,   0.978557,  -0.439677, -592.500000, -124.500000, -346.500000,   1.733763, -91.466208, -118.803240,   0.364566,  -0.355361,   0.621667,  -0.595204, 
23153,  -0.334587,  -9.675204,  -0.258912,  -0.915094, -40.355604,  -0.003329,  -0.645635,   0.967969,  -0.435646, -595.500000, -127.500000, -345.000000,   1.757087, -91.456632, -118.393648,   0.366848,  -0.357429,   0.620418,  -0.593877, 
23154,  -0.190143,  -9.861182,  -0.344717,  -0.991526, -40.422220,  -0.893055,  -0.645823,   0.964348,  -0.440761, -595.500000, -129.000000, -346.500000,   1.736684, -91.470200, -117.990040,   0.368788,  -0.359765,   0.619166,  -0.592578, 
23155,  -0.304835,  -9.679542,  -0.215612,  -1.085336, -40.240664,  -0.220737,  -0.633155,   0.979460,  -0.440324, -589.500000, -124.500000, -346.500000,   1.751617, -91.461424, -117.584232,   0.370987,  -0.361845,   0.617882,  -0.591260, 
23156,  -0.184691,  -9.822854,  -0.312781,  -1.042455, -40.396436,  -1.093326,  -0.639122,   0.977743,  -0.435139, -592.500000, -124.500000, -345.000000,   1.739033, -91.471384, -117.179392,   0.372976,  -0.364124,   0.616613,  -0.589934, 
23157,  -0.387370,  -9.806164,  -0.266477,  -1.172427, -40.410880,  -0.494511,  -0.657365,   0.970961,  -0.410507, -601.500000, -124.500000, -337.500000,   1.752873, -91.470472, -116.772168,   0.375151,  -0.366242,   0.615361,  -0.588571, 
23158,  -0.085618,  -9.737086,  -0.254738,  -0.849325, -40.768396,  -0.680066,  -0.660947,   0.967252,  -0.392034, -603.000000, -124.500000, -331.500000,   1.740861, -91.474888, -116.365824,   0.377154,  -0.368495,   0.614037,  -0.587248, 
23159,  -0.401955,  -9.886970,  -0.315624,  -1.053439, -41.407552,  -0.510908,  -0.669487,   0.963905,  -0.405251, -607.500000, -126.000000, -336.000000,   1.746888, -91.480112, -115.954008,   0.379275,  -0.370684,   0.612751,  -0.585837, 
23160,  -0.178595,  -9.697831,  -0.188716,  -0.945820, -41.780420,  -0.316180,  -0.666401,   0.967978,  -0.400461, -606.000000, -124.500000, -334.500000,   1.747881, -91.476304, -115.537376,   0.381423,  -0.372895,   0.611389,  -0.584477, 
23161,  -0.355869,  -9.792250,  -0.190102,  -1.228204, -41.801172,  -1.024597,  -0.661306,   0.962816,  -0.392611, -603.000000, -126.000000, -331.500000,   1.754325, -91.472488, -115.116704,   0.383613,  -0.375091,   0.610018,  -0.583071, 
23162,  -0.012610,  -9.747116,  -0.105479,  -1.038710, -41.684220,  -0.681017,  -0.670342,   0.959833,  -0.382564, -607.500000, -126.000000, -328.500000,   1.738711, -91.451104, -114.696352,   0.385735,  -0.377332,   0.608474,  -0.581823, 
23163,  -0.163287,  -9.816191,  -0.129076,  -1.087124, -42.244712,  -0.717618,  -0.673223,   0.962188,  -0.372588, -609.000000, -124.500000, -325.500000,   1.718847, -91.431248, -114.273320,   0.387845,  -0.379613,   0.606916,  -0.580572, 
23164,   0.016555,  -9.727607,  -0.173708,  -1.062130, -42.279076,  -0.465567,  -0.666727,   0.969155,  -0.381733, -606.000000, -123.000000, -328.500000,   1.698172, -91.421152, -113.849440,   0.389922,  -0.381932,   0.605397,  -0.579266, 
23165,  -0.113820,  -9.841018,  -0.232593,  -1.033385, -42.894360,  -0.745974,  -0.663829,   0.969607,  -0.382057, -604.500000, -123.000000, -328.500000,   1.671188, -91.418744, -113.421872,   0.391944,  -0.384314,   0.603859,  -0.577907, 
23166,  -0.061449,  -9.708799,  -0.266342,  -1.162627, -42.929388,  -0.695802,  -0.677960,   0.971785,  -0.379860, -612.000000, -121.500000, -328.500000,   1.658528, -91.425160, -112.989952,   0.394032,  -0.386675,   0.602397,  -0.576436, 
23167,  -0.005862,  -9.842009,  -0.253035,  -1.016113, -43.757400,  -0.769819,  -0.683568,   0.974503,  -0.374097, -615.000000, -120.000000, -327.000000,   1.622995, -91.426912, -112.554240,   0.396038,  -0.389156,   0.600823,  -0.575060, 
23168,  -0.144692,  -9.682747,  -0.112322,  -1.325258, -43.747496,  -0.712129,  -0.680296,   0.982196,  -0.364191, -613.500000, -117.000000, -324.000000,   1.617619, -91.414008, -112.113064,   0.398261,  -0.391445,   0.599231,  -0.573611, 
23169,   0.048817,  -9.894311,  -0.210761,  -1.068049, -44.682872,  -0.856458,  -0.683536,   0.980116,  -0.354792, -615.000000, -117.000000, -321.000000,   1.579306, -91.406768, -111.669512,   0.400307,  -0.393930,   0.597546,  -0.572239, 
23170,  -0.011652,  -9.697103,   0.008463,  -1.137462, -45.524864,  -0.280382,  -0.685124,   0.964366,  -0.342912, -615.000000, -121.500000, -316.500000,   1.559831, -91.379336, -111.216696,   0.402565,  -0.396296,   0.595789,  -0.570872, 
23171,   0.152758,  -9.831193,  -0.059452,  -1.095523, -46.577080,  -0.759870,  -0.682756,   0.959567,  -0.339276, -613.500000, -123.000000, -315.000000,   1.518066, -91.358672, -110.754920,   0.404719,  -0.398829,   0.593939,  -0.569499, 
23172,   0.202315,  -9.767202,   0.058403,  -1.275194, -47.368064,  -0.697577,  -0.686166,   0.956672,  -0.325339, -615.000000, -123.000000, -310.500000,   1.479267, -91.329176, -110.282216,   0.406969,  -0.401365,   0.592007,  -0.568116, 
23173,   0.211519,  -9.836135,  -0.072001,  -1.235101, -48.552088,  -0.857418,  -0.689065,   0.956221,  -0.325015, -616.500000, -123.000000, -310.500000,   1.424212, -91.309040, -109.799544,   0.409157,  -0.404066,   0.590031,  -0.566710, 
23174,   0.200886,  -9.713474,  -0.053898,  -1.154476, -49.446096,  -0.722529,  -0.692492,   0.950519,  -0.320731, -618.000000, -124.500000, -309.000000,   1.383332, -91.289744, -109.306640,   0.411449,  -0.406732,   0.588045,  -0.565188, 
23175,   0.221682,  -9.859772,  -0.094367,  -1.190490, -50.962104,  -0.699577,  -0.696775,   0.940745,  -0.293760, -619.500000, -126.000000, -300.000000,   1.324228, -91.270160, -108.803304,   0.413697,  -0.409533,   0.585946,  -0.563689, 
23176,   0.172922,  -9.729495,  -0.134380,  -1.303438, -51.374704,  -0.642396,  -0.687689,   0.952148,  -0.274849, -615.000000, -121.500000, -294.000000,   1.285461, -91.263176, -108.289736,   0.416056,  -0.412330,   0.583943,  -0.562018, 
23177,   0.172358,  -9.761850,  -0.210930,  -1.298027, -52.314872,  -0.872746,  -0.692410,   0.964552,  -0.272469, -618.000000, -117.000000, -294.000000,   1.231388, -91.257064, -107.770272,   0.418343,  -0.415211,   0.581835,  -0.560348, 
23178,   0.211328,  -9.761600,  -0.183951,  -1.188403, -52.853276,  -0.574567,  -0.701446,   0.961568,  -0.262422, -622.500000, -117.000000, -291.000000,   1.190991, -91.256248, -107.244104,   0.420714,  -0.418076,   0.579775,  -0.558577, 
23179,   0.006450,  -9.803593,  -0.282425,  -1.298824, -54.147800,  -0.957537,  -0.702146,   0.955504,  -0.253924, -622.500000, -118.500000, -288.000000,   1.151285, -91.266776, -106.708816,   0.423085,  -0.421017,   0.577728,  -0.556706, 
23180,   0.290121,  -9.713494,  -0.237889,  -1.149565, -55.066328,  -0.365907,  -0.706120,   0.941746,  -0.255333, -624.000000, -123.000000, -288.000000,   1.113273, -91.267208, -106.162800,   0.425538,  -0.423948,   0.575573,  -0.554819, 
23181,   0.017652,  -9.744163,  -0.170170,  -1.677124, -56.852748,  -1.262148,  -0.709001,   0.944101,  -0.245356, -625.500000, -121.500000, -285.000000,   1.078191, -91.276208, -105.601880,   0.428047,  -0.426971,   0.573413,  -0.552825, 
23182,   0.297326,  -9.856714,  -0.349146,  -1.035838, -58.253796,  -0.483173,  -0.711883,   0.946456,  -0.235380, -627.000000, -120.000000, -282.000000,   1.036210, -91.284456, -105.026544,   0.430575,  -0.430075,   0.571142,  -0.550783, 
23183,   0.136309,  -9.864259,  -0.037170,  -1.391910, -60.062364,  -0.793853,  -0.710215,   0.935593,  -0.223246, -625.500000, -123.000000, -277.500000,   0.994074, -91.303856, -104.436712,   0.433126,  -0.433288,   0.568859,  -0.548627, 
23184,   0.353011,  -9.859143,  -0.295224,  -1.219981, -60.648740,  -0.380768,  -0.716369,   0.930254,  -0.223176, -628.500000, -124.500000, -277.500000,   0.952427, -91.307104, -103.835016,   0.435786,  -0.436484,   0.566438,  -0.546493, 
23185,   0.246214,  -9.838326,   0.076977,  -1.688532, -62.341032,  -1.203129,  -0.719267,   0.929803,  -0.222851, -630.000000, -124.500000, -277.500000,   0.893818, -91.307392, -103.219936,   0.438424,  -0.439798,   0.563864,  -0.544369, 
23186,   0.393206,  -9.732139,  -0.322117,  -1.547769, -62.957992,  -0.595598,  -0.717770,   0.918125,  -0.206181, -628.500000, -127.500000, -271.500000,   0.850035, -91.315168, -102.592664,   0.441161,  -0.443124,   0.561328,  -0.542103, 
23187,   0.333328,  -9.743735,  -0.134767,  -1.508960, -64.183664,  -1.364433,  -0.722662,   0.929714,  -0.199262, -631.500000, -123.000000, -270.000000,   0.787852, -91.323080, -101.954624,   0.443835,  -0.446562,   0.558643,  -0.539838, 
23188,   0.207695,  -9.740056,  -0.180292,  -1.826320, -65.009064,  -1.331343,  -0.731698,   0.926731,  -0.189216, -636.000000, -123.000000, -267.000000,   0.751801, -91.318640, -101.306168,   0.446734,  -0.449877,   0.555957,  -0.537491, 
23189,   0.441121,  -9.888331,  -0.149997,  -1.336834, -66.663324,  -0.849604,  -0.726415,   0.925190,  -0.176251, -633.000000, -123.000000, -262.500000,   0.686784, -91.319136, -100.646760,   0.449500,  -0.453370,   0.553102,  -0.535162, 
23190,  -0.097344,  -9.645967,  -0.115354,  -2.111618, -67.634128,  -1.435276,  -0.723329,   0.929263,  -0.171460, -631.500000, -121.500000, -261.000000,   0.678071, -91.318728, -99.971928,   0.452610,  -0.456665,   0.550393,  -0.532549, 
23191,   0.565143, -10.005261,  -0.143841,  -1.089954, -68.648488,  -1.021401,  -0.724046,   0.920392,  -0.172615, -631.500000, -124.500000, -261.000000,   0.643761, -91.319784, -99.290984,   0.455594,  -0.460086,   0.547534,  -0.529979, 
23192,  -0.049650,  -9.626051,   0.086982,  -2.316138, -68.927760,  -0.903524,  -0.727628,   0.916682,  -0.154141, -633.000000, -124.500000, -255.000000,   0.636165, -91.299560, -98.598728,   0.458838,  -0.463344,   0.544626,  -0.527349, 
23193,   0.621813,  -9.925410,   0.010668,  -1.098282, -69.585304,  -1.569016,  -0.745717,   0.907909,  -0.143700, -642.000000, -126.000000, -252.000000,   0.599173, -91.290160, -97.907200,   0.461872,  -0.466751,   0.541625,  -0.524762, 
23194,   0.008208,  -9.786980,   0.065795,  -2.045442, -70.090000,  -0.758737,  -0.749453,   0.906191,  -0.111036, -643.500000, -124.500000, -241.500000,   0.584241, -91.256512, -97.204528,   0.465154,  -0.469999,   0.538544,  -0.522144, 
23195,   0.560004,  -9.798504,  -0.094755,  -1.138850, -71.042896,  -1.334271,  -0.740555,   0.913973,  -0.097240, -639.000000, -121.500000, -237.000000,   0.552032, -91.257608, -96.500016,   0.468197,  -0.473449,   0.535514,  -0.519399, 
23196,  -0.011974,  -9.839584,  -0.131636,  -1.953975, -71.680536,  -0.948442,  -0.739871,   0.917231,  -0.115390, -639.000000, -121.500000, -243.000000,   0.537329, -91.250840, -95.783592,   0.471400,  -0.476831,   0.532458,  -0.516560, 
23197,   0.500288,  -9.754872,  -0.229137,  -1.505453, -72.509768,  -1.320857,  -0.749420,   0.911804,  -0.091731, -643.500000, -121.500000, -235.500000,   0.485103, -91.266752, -95.061856,   0.474334,  -0.480473,   0.529297,  -0.513724, 
23198,  -0.115466,  -9.872019,  -0.258331,  -1.982279, -72.250472,  -1.082655,  -0.749900,   0.914974,  -0.058813, -643.500000, -118.500000, -225.000000,   0.484162, -91.284152, -94.333480,   0.477518,  -0.483911,   0.526313,  -0.510629, 
23199,   0.331093,  -9.580409,  -0.252706,  -1.707536, -71.237296,  -1.335287,  -0.745505,   0.903748,  -0.042466, -640.500000, -121.500000, -219.000000,   0.453759, -91.308512, -93.614368,   0.480467,  -0.487436,   0.523241,  -0.507636, 
23200,  -0.212840,  -9.980002,  -0.167852,  -1.924506, -70.339200,  -1.504483,  -0.751831,   0.897595,  -0.037858, -643.500000, -123.000000, -217.500000,   0.451761, -91.309504, -92.901368,   0.483609,  -0.490703,   0.520201,  -0.504648, 
23201,   0.168865,  -9.565778,  -0.140003,  -1.772579, -69.073848,  -1.010369,  -0.754353,   0.904385,  -0.027304, -645.000000, -120.000000, -214.500000,   0.451569, -91.319888, -92.201488,   0.486630,  -0.493909,   0.517233,  -0.501632, 
23202,  -0.153448,  -9.971708,  -0.096059,  -1.551286, -68.489752,  -1.502325,  -0.760834,   0.900224,  -0.008506, -648.000000, -120.000000, -208.500000,   0.445356, -91.311144, -91.511432,   0.489659,  -0.497011,   0.514191,  -0.498766, 
23203,  -0.046225,  -9.631769,  -0.093848,  -1.593977, -66.618348,  -0.869043,  -0.761722,   0.890539,  -0.005124, -648.000000, -123.000000, -207.000000,   0.461851, -91.304248, -90.834288,   0.492694,  -0.499932,   0.511279,  -0.495815, 
23204,  -0.196032,  -9.907615,  -0.149448,  -1.553704, -66.141708,  -1.582476,  -0.764245,   0.897329,   0.005429, -649.500000, -120.000000, -204.000000,   0.461936, -91.299240, -90.168176,   0.495595,  -0.502879,   0.508348,  -0.492969, 
23205,  -0.123490,  -9.613158,  -0.082018,  -1.695176, -64.696764,  -0.888236,  -0.758774,   0.899410,   0.023509, -646.500000, -118.500000, -198.000000,   0.486341, -91.288864, -89.510976,   0.498562,  -0.505631,   0.505512,  -0.490051, 
23206,  -0.300239,  -9.882988,  -0.136634,  -1.490287, -64.069152,  -1.579766,  -0.746060,   0.882296,   0.028654, -639.000000, -124.500000, -195.000000,   0.498989, -91.289256, -88.864736,   0.501373,  -0.508424,   0.502711,  -0.487176, 
23207,  -0.268353,  -9.708532,   0.041361,  -1.621546, -62.436748,  -0.751539,  -0.746590,   0.877046,   0.032614, -639.000000, -126.000000, -193.500000,   0.540236, -91.264536, -88.229504,   0.504353,  -0.510916,   0.499958,  -0.484309, 
23208,  -0.205299,  -9.769801,  -0.197226,  -1.521760, -62.004236,  -1.369368,  -0.752011,   0.883385,   0.043492, -642.000000, -123.000000, -190.500000,   0.547151, -91.267760, -87.605592,   0.506997,  -0.513614,   0.497212,  -0.481510, 
23209,  -0.438218,  -9.658174,   0.024195,  -1.438183, -60.446120,  -1.062270,  -0.751823,   0.887006,   0.048607, -642.000000, -121.500000, -189.000000,   0.590989, -91.237616, -86.989496,   0.509904,  -0.515963,   0.494513,  -0.478711, 
23210,  -0.237927,  -9.863533,  -0.247107,  -1.585367, -59.753548,  -1.382299,  -0.750155,   0.876143,   0.060740, -640.500000, -124.500000, -184.500000,   0.606975, -91.242776, -86.387000,   0.512453,  -0.518507,   0.491881,  -0.475924, 
23211,  -0.562554,  -9.688452,   0.052756,  -1.359078, -58.497360,  -0.904934,  -0.747395,   0.881393,   0.084259, -639.000000, -121.500000, -177.000000,   0.659526, -91.217504, -85.792728,   0.515260,  -0.520727,   0.489323,  -0.473134, 
23212,  -0.329853,  -9.856774,  -0.185820,  -1.383602, -57.546760,  -1.158107,  -0.747737,   0.879764,   0.093334, -639.000000, -121.500000, -174.000000,   0.692987, -91.217208, -85.211640,   0.517785,  -0.523052,   0.486816,  -0.470354, 
23213,  -0.533527,  -9.743294,  -0.071589,  -1.375691, -56.700332,  -0.890596,  -0.757336,   0.865918,   0.088036, -643.500000, -126.000000, -175.500000,   0.738354, -91.208736, -84.638152,   0.520364,  -0.525259,   0.484365,  -0.467585, 
23214,  -0.344056,  -9.777965,  -0.270856,  -1.152047, -55.802648,  -0.941807,  -0.756602,   0.877595,   0.098843, -643.500000, -121.500000, -172.500000,   0.775615, -91.220408, -84.075120,   0.522755,  -0.527532,   0.481993,  -0.464800, 
23215,  -0.580494,  -9.790114,  -0.213020,  -1.460827, -55.757204,  -0.892183,  -0.757099,   0.877958,   0.122108, -643.500000, -120.000000, -165.000000,   0.813977, -91.227912, -83.515872,   0.525138,  -0.529752,   0.479614,  -0.462030, 
23216,  -0.360379,  -9.713180,  -0.435590,  -1.088156, -54.493420,  -0.604536,  -0.753233,   0.861482,   0.142415, -640.500000, -124.500000, -157.500000,   0.858264, -91.256648, -82.964696,   0.527413,  -0.532015,   0.477386,  -0.459180, 
23217,  -0.473663,  -9.737160,  -0.323139,  -1.492666, -54.673008,  -1.116954,  -0.752704,   0.866732,   0.138455, -640.500000, -123.000000, -159.000000,   0.882539, -91.283872, -82.418280,   0.529560,  -0.534304,   0.475055,  -0.456425, 
23218,  -0.534923,  -9.720539,  -0.547257,  -1.055103, -53.745976,  -0.547378,  -0.752671,   0.872345,   0.157760, -640.500000, -120.000000, -153.000000,   0.940745, -91.323056, -81.876584,   0.531768,  -0.536495,   0.472949,  -0.453482, 
23219,  -0.452725,  -9.773818,  -0.357827,  -1.525843, -53.685508,  -1.117181,  -0.757345,   0.852523,   0.164850, -642.000000, -126.000000, -150.000000,   0.973199, -91.362696, -81.339776,   0.533834,  -0.538762,   0.470738,  -0.450671, 
23220,  -0.617492,  -9.758728,  -0.485931,  -1.264833, -53.284076,  -0.776461,  -0.762082,   0.862120,   0.157577, -645.000000, -123.000000, -153.000000,   1.035685, -91.401472, -80.802904,   0.536004,  -0.540890,   0.468646,  -0.447704, 
23221,  -0.262872,  -9.777586,  -0.333989,  -1.344988, -53.623388,  -1.061867,  -0.759167,   0.865378,   0.166906, -643.500000, -121.500000, -150.000000,   1.054373, -91.429304, -80.268152,   0.538037,  -0.543135,   0.466317,  -0.445001, 
23222,  -0.518280,  -9.750989,  -0.414956,  -1.305947, -53.978136,  -0.832760,  -0.760055,   0.855692,   0.170288, -643.500000, -124.500000, -148.500000,   1.094926, -91.450144, -79.728256,   0.540183,  -0.545258,   0.464017,  -0.442176, 
23223,  -0.152163,  -9.799916,  -0.323736,  -1.428729, -54.281620,  -1.091890,  -0.755489,   0.845281,   0.182098, -640.500000, -127.500000, -144.000000,   1.104305, -91.470776, -79.186520,   0.542205,  -0.547506,   0.461556,  -0.439488, 
23224,  -0.460841,  -9.746799,  -0.251640,  -1.433546, -54.743424,  -0.943495,  -0.752933,   0.844103,   0.190849, -639.000000, -127.500000, -141.000000,   1.132272, -91.474040, -78.638656,   0.544400,  -0.549619,   0.459082,  -0.436747, 
23225,  -0.162229,  -9.766807,  -0.312575,  -1.200059, -54.574832,  -0.920521,  -0.753275,   0.842474,   0.199924, -639.000000, -127.500000, -138.000000,   1.143802, -91.485896, -78.090880,   0.546462,  -0.551812,   0.456542,  -0.434030, 
23226,  -0.430800,  -9.688178,  -0.063114,  -1.440621, -54.638064,  -1.220195,  -0.751607,   0.831611,   0.212057, -637.500000, -130.500000, -133.500000,   1.161081, -91.465888, -77.541232,   0.548708,  -0.553839,   0.453901,  -0.431403, 
23227,  -0.388370,  -9.802791,  -0.170876,  -1.297896, -54.095668,  -1.200283,  -0.748693,   0.834869,   0.221386, -636.000000, -129.000000, -130.500000,   1.196446, -91.455600, -76.995056,   0.550941,  -0.555809,   0.451384,  -0.428648, 
23228,  -0.505078,  -9.812532,  -0.080867,  -1.380357, -54.565352,  -0.887527,  -0.745265,   0.840571,   0.217102, -634.500000, -127.500000, -132.000000,   1.224202, -91.434376, -76.449152,   0.553186,  -0.557744,   0.448783,  -0.425963, 
23229,  -0.519592,  -9.732418,  -0.230232,  -1.118035, -54.048796,  -0.649184,  -0.747976,   0.843740,   0.222541, -636.000000, -126.000000, -130.500000,   1.273804, -91.429024, -75.904960,   0.555427,  -0.559664,   0.446353,  -0.423114, 
23230,  -0.421273,  -9.778122,  -0.018251,  -1.457842, -53.720200,  -0.908177,  -0.755514,   0.829079,   0.249259, -639.000000, -129.000000, -121.500000,   1.294395, -91.406784, -75.365528,   0.557591,  -0.561565,   0.443724,  -0.420472, 
23231,  -0.657901,  -9.695651,  -0.140025,  -1.122994, -52.443120,  -0.744486,  -0.746821,   0.830434,   0.248287, -634.500000, -129.000000, -121.500000,   1.353264, -91.391384, -74.832424,   0.559841,  -0.563331,   0.441337,  -0.417641, 
23232,  -0.438112,  -9.747165,  -0.105110,  -1.263291, -51.462624,  -1.196636,  -0.753300,   0.826273,   0.267085, -637.500000, -129.000000, -115.500000,   1.377799, -91.376632, -74.311840,   0.561898,  -0.565168,   0.438839,  -0.415028, 
23233,  -0.912050,  -9.725565,  -0.164497,  -1.259328, -50.023332,  -0.772620,  -0.748189,   0.823918,   0.284587, -634.500000, -129.000000, -109.500000,   1.445100, -91.359744, -73.801000,   0.564069,  -0.566779,   0.436575,  -0.412240, 
23234,  -0.546215,  -9.690809,   0.013925,  -1.119153, -48.162316,  -1.127710,  -0.739120,   0.832514,   0.293845, -630.000000, -126.000000, -106.500000,   1.493750, -91.331400, -73.309192,   0.566155,  -0.568331,   0.434276,  -0.409680, 
23235,  -0.978262,  -9.858943,  -0.042851,  -1.259866, -47.011348,  -0.904776,  -0.734554,   0.822103,   0.305654, -627.000000, -129.000000, -102.000000,   1.553734, -91.297928, -72.829464,   0.568245,  -0.569753,   0.432061,  -0.407125, 
23236,  -0.593427,  -9.623343,   0.063193,  -0.716943, -44.763192,  -0.749582,  -0.737109,   0.823280,   0.296903, -628.500000, -129.000000, -105.000000,   1.573996, -91.278184, -72.369112,   0.570044,  -0.571307,   0.429794,  -0.404806, 
23237,  -0.870695,  -9.838430,  -0.009511,  -1.313710, -44.015928,  -1.208004,  -0.741830,   0.835684,   0.299284, -631.500000, -124.500000, -105.000000,   1.618971, -91.244104, -71.922328,   0.571953,  -0.572647,   0.427667,  -0.402481, 
23238,  -0.752204,  -9.676341,  -0.007665,  -0.774382, -41.871544,  -0.664028,  -0.734179,   0.829345,   0.315885, -627.000000, -126.000000, -99.000000,   1.648370, -91.230720, -71.490424,   0.573637,  -0.574080,   0.425602,  -0.400221, 
23239,  -0.804442,  -9.863021,  -0.205231,  -1.076210, -40.837740,  -1.203073,  -0.731639,   0.825361,   0.314983, -625.500000, -127.500000, -99.000000,   1.697382, -91.228920, -71.075320,   0.575260,  -0.575425,   0.423749,  -0.397892, 
23240,  -0.755528,  -9.631737,  -0.154020,  -0.878323, -39.271296,  -0.175125,  -0.739958,   0.831248,   0.326185, -630.000000, -124.500000, -96.000000,   1.763284, -91.218112, -70.673496,   0.576940,  -0.576617,   0.422017,  -0.395574, 
23241,  -1.007673,  -9.848760,  -0.370408,  -1.037410, -38.433344,  -1.067096,  -0.737027,   0.837313,   0.345166, -628.500000, -121.500000, -90.000000,   1.836537, -91.244368, -70.283768,   0.578414,  -0.577925,   0.420510,  -0.393140, 
23242,  -0.722900,  -9.711020,  -0.171536,  -0.831137, -37.137452,  -0.371673,  -0.737915,   0.827627,   0.348548, -628.500000, -124.500000, -88.500000,   1.902734, -91.247216, -69.905296,   0.579917,  -0.579079,   0.418930,  -0.390869, 
23243,  -0.771282,  -9.735285,  -0.328176,  -0.765826, -36.449492,  -1.113953,  -0.744787,   0.813418,   0.347464, -631.500000, -129.000000, -88.500000,   1.952922, -91.263328, -69.537032,   0.581261,  -0.580324,   0.417369,  -0.388684, 
23244,  -0.793181,  -9.714681,  -0.275341,  -0.800276, -35.850544,  -0.940269,  -0.744053,   0.825095,   0.358272, -631.500000, -124.500000, -85.500000,   2.010626, -91.274456, -69.174040,   0.582636,  -0.581498,   0.415855,  -0.386503, 
23245,  -0.735669,  -9.780539,  -0.363613,  -0.603244, -35.429336,  -1.016678,  -0.735514,   0.828442,   0.371490, -627.000000, -123.000000, -81.000000,   2.059618, -91.286728, -68.817288,   0.583947,  -0.582684,   0.414330,  -0.384391, 
23246,  -0.639054,  -9.722332,  -0.309017,  -0.978259, -35.573208,  -0.711026,  -0.721724,   0.824635,   0.378367, -619.500000, -124.500000, -78.000000,   2.094015, -91.300040, -68.461080,   0.585182,  -0.583909,   0.412728,  -0.382342, 
23247,  -0.476706,  -9.718365,  -0.183804,  -0.756444, -35.386580,  -0.452881,  -0.721195,   0.829885,   0.374407, -619.500000, -123.000000, -79.500000,   2.118185, -91.292200, -68.104224,   0.586491,  -0.585065,   0.411001,  -0.380418, 
23248,  -0.391466,  -9.835586,  -0.323774,  -1.234233, -36.165372,  -0.071646,  -0.727708,   0.820111,   0.373900, -622.500000, -126.000000, -79.500000,   2.122830, -91.296864, -67.745368,   0.587675,  -0.586362,   0.409209,  -0.378542, 
23249,  -0.410335,  -9.678666,  -0.208988,  -0.777464, -36.657120,   0.034886,  -0.731135,   0.814409,   0.378184, -624.000000, -127.500000, -78.000000,   2.140455, -91.285200, -67.379952,   0.589001,  -0.587545,   0.407389,  -0.376616, 
23250,  -0.439039,  -9.763045,  -0.459817,  -1.144555, -38.453728,  -0.459432,  -0.727895,   0.816490,   0.368785, -622.500000, -127.500000, -81.000000,   2.144578, -91.297000, -67.004792,   0.590178,  -0.588916,   0.405518,  -0.374619, 
23251,  -0.078751,  -9.679833,  -0.021861,  -0.360122, -39.333928,  -0.596006,  -0.725697,   0.810877,   0.376958, -621.000000, -129.000000, -78.000000,   2.125786, -91.255664, -66.613732,   0.591602,  -0.590146,   0.403276,  -0.372846, 
23252,  -0.019351,  -9.851517,  -0.194716,  -1.357909, -41.008740,  -0.942324,  -0.731477,   0.812780,   0.387259, -624.000000, -127.500000, -75.000000,   2.071249, -91.229992, -66.208716,   0.592874,  -0.591628,   0.400833,  -0.371135, 
23253,  -0.468704,  -9.587661,  -0.153754,  -1.044425, -42.187948,  -0.808970,  -0.728408,   0.814046,   0.382397, -622.500000, -127.500000, -76.500000,   2.082548, -91.211664, -65.787444,   0.594362,  -0.592960,   0.398651,  -0.368954, 
23254,   0.230433,  -9.926871,  -0.256053,  -0.564163, -43.179308,  -0.589214,  -0.714602,   0.813046,   0.398928, -615.000000, -127.500000, -70.500000,   2.026137, -91.195104, -65.361152,   0.595628,  -0.594540,   0.396100,  -0.367094, 
23255,  -0.447220,  -9.668089,  -0.167288,  -1.390765, -43.923884,  -0.247960,  -0.719852,   0.820199,   0.405268, -618.000000, -124.500000, -69.000000,   2.014892, -91.186304, -64.923516,   0.597040,  -0.596045,   0.393744,  -0.364910, 
23256,   0.165751,  -9.798724,  -0.388054,  -0.607439, -43.242324,  -0.756166,  -0.729776,   0.807530,   0.418697, -622.500000, -127.500000, -64.500000,   1.981049, -91.193752, -64.488708,   0.598273,  -0.597688,   0.391332,  -0.362798, 
23257,  -0.264407,  -9.777722,  -0.257279,  -1.518034, -44.074328,  -0.345833,  -0.727578,   0.801917,   0.426871, -621.000000, -129.000000, -61.500000,   1.948844, -91.199024, -64.051276,   0.599517,  -0.599307,   0.388895,  -0.360662, 
23258,   0.043038,  -9.711824,  -0.455008,  -0.610060, -42.609884,  -0.588306,  -0.716328,   0.802094,   0.434650, -615.000000, -129.000000, -58.500000,   1.935992, -91.216176, -63.617628,   0.600750,  -0.600911,   0.386615,  -0.358404, 
23259,  -0.180870,  -9.868684,  -0.144587,  -1.576913, -43.261124,  -1.393792,  -0.715408,   0.817393,   0.450572, -615.000000, -123.000000, -54.000000,   1.898343, -91.222208, -63.185164,   0.601953,  -0.602527,   0.384173,  -0.356319, 
23260,  -0.046455,  -9.751307,  -0.319374,  -0.673359, -42.874900,  -0.254297,  -0.713398,   0.808159,   0.453631, -613.500000, -126.000000, -52.500000,   1.885991, -91.221264, -62.753172,   0.603250,  -0.603998,   0.381827,  -0.354112, 
23261,  -0.086428,  -9.827304,  -0.039396,  -1.257824, -43.055228,  -0.994987,  -0.716842,   0.799651,   0.448263, -615.000000, -129.000000, -54.000000,   1.856023, -91.210544, -62.321024,   0.604544,  -0.605476,   0.379359,  -0.352032, 
23262,  -0.049625,  -9.756929,  -0.149434,  -1.190579, -43.142580,  -0.647680,  -0.720269,   0.793949,   0.452546, -616.500000, -130.500000, -52.500000,   1.824750, -91.192864, -61.887520,   0.605877,  -0.606923,   0.376856,  -0.349975, 
23263,  -0.060449,  -9.753619,  -0.000201,  -0.915410, -43.171876,  -1.036802,  -0.704641,   0.780094,   0.467020, -607.500000, -135.000000, -46.500000,   1.800494, -91.170752, -61.452520,   0.607234,  -0.608300,   0.374350,  -0.347871, 
23264,  -0.071681,  -9.854925,  -0.154977,  -1.278122, -44.119084,  -0.291767,  -0.703907,   0.791771,   0.477827, -607.500000, -130.500000, -43.500000,   1.757951, -91.149304, -61.015320,   0.608539,  -0.609745,   0.371740,  -0.345851, 
23265,  -0.202148,  -9.648871,  -0.089710,  -0.744292, -43.197844,  -0.817804,  -0.703891,   0.794578,   0.487480, -607.500000, -129.000000, -40.500000,   1.759387, -91.128704, -60.575776,   0.609983,  -0.611059,   0.369348,  -0.343577, 
23266,  -0.226005,  -9.636680,  -0.238601,  -1.718623, -44.504364,  -1.034512,  -0.697565,   0.800731,   0.482872, -604.500000, -127.500000, -42.000000,   1.717231, -91.117704, -60.135660,   0.611224,  -0.612543,   0.366742,  -0.341493, 
23267,  -0.024501,  -9.728748,  -0.105555,  -0.461571, -44.077500,  -0.490904,  -0.702815,   0.807884,   0.489213, -607.500000, -124.500000, -40.500000,   1.709215, -91.094392, -59.691272,   0.612641,  -0.613857,   0.364251,  -0.339236, 
23268,  -0.028415, -10.041550,   0.008693,  -1.196922, -45.508396,  -0.567941,  -0.697703,   0.805529,   0.506715, -604.500000, -124.500000, -34.500000,   1.664786, -91.070040, -59.243256,   0.613967,  -0.615291,   0.361546,  -0.337162, 
23269,   0.004346,  -9.745259,   0.130123,  -0.819758, -45.534696,  -0.320571,  -0.701318,   0.796207,   0.505884, -606.000000, -127.500000, -34.500000,   1.649764, -91.036112, -58.786248,   0.615442,  -0.616589,   0.358910,  -0.334898, 
23270,  -0.090728,  -9.830282,  -0.018774,  -1.201768, -46.997808,  -1.325504,  -0.710746,   0.783175,   0.496048, -610.500000, -132.000000, -37.500000,   1.616260, -91.020096, -58.321596,   0.616778,  -0.618052,   0.356181,  -0.332631, 
23271,  -0.091500,  -9.685127,  -0.218747,  -0.902284, -47.839568,  -0.536489,  -0.699292,   0.789779,   0.518594, -604.500000, -129.000000, -30.000000,   1.597649, -91.000896, -57.844404,   0.618214,  -0.619489,   0.353453,  -0.330224, 
23272,  -0.237876,  -9.681060,  -0.180294,  -1.431099, -49.345644,  -1.308823,  -0.695677,   0.799102,   0.519426, -603.000000, -126.000000, -30.000000,   1.584447, -90.998280, -57.354536,   0.619593,  -0.621018,   0.350723,  -0.327658, 
23273,  -0.364502,  -9.677753,  -0.410219,  -1.416107, -50.449140,  -1.389184,  -0.703078,   0.779642,   0.522301, -606.000000, -132.000000, -28.500000,   1.589410, -91.008496, -56.850328,   0.620984,  -0.622592,   0.348040,  -0.324868, 
23274,  -0.301457,  -9.861255,  -0.380366,  -1.189025, -51.728476,  -0.965562,  -0.697966,   0.777287,   0.539803, -603.000000, -132.000000, -22.500000,   1.594692, -91.031768, -56.336328,   0.622333,  -0.624267,   0.345343,  -0.321985, 
23275,  -0.364569,  -9.700190,  -0.421448,  -0.984366, -52.623900,  -0.274277,  -0.688913,   0.783077,   0.539409, -598.500000, -130.500000, -22.500000,   1.605990, -91.057720, -55.815400,   0.623673,  -0.625931,   0.342630,  -0.319008, 
23276,  -0.283223,  -9.759214,  -0.318193,  -1.044240, -52.679484,  -0.737181,  -0.689443,   0.777827,   0.543369, -598.500000, -132.000000, -21.000000,   1.616195, -91.070592, -55.289608,   0.625088,  -0.627537,   0.339845,  -0.316048, 
23277,  -0.485204,  -9.789656,  -0.349818,  -1.390358, -52.991412,  -1.007624,  -0.689614,   0.777013,   0.547906, -598.500000, -132.000000, -19.500000,   1.635731, -91.096336, -54.759484,   0.626464,  -0.629194,   0.337118,  -0.312973, 
23278,  -0.278610,  -9.792919,  -0.316412,  -1.151221, -53.033776,  -0.483566,  -0.674048,   0.792577,   0.548019, -591.000000, -127.500000, -19.500000,   1.651807, -91.112312, -54.229680,   0.627852,  -0.630779,   0.334330,  -0.309932, 
23279,  -0.582568,  -9.652919,  -0.261926,  -1.581273, -53.186488,  -0.969678,  -0.670417,   0.804706,   0.558502, -589.500000, -123.000000, -16.500000,   1.677796, -91.123728, -53.697156,   0.629298,  -0.632319,   0.331569,  -0.306834, 
23280,  -0.174789,  -9.795637,  -0.352230,  -0.939575, -52.519720,  -0.759298,  -0.677426,   0.795295,   0.581260, -592.500000, -124.500000,  -9.000000,   1.692158, -91.133888, -53.166164,   0.630695,  -0.633863,   0.328740,  -0.303805, 
23281,  -0.832051,  -9.791059,  -0.111027,  -1.909868, -52.710164,  -1.913456,  -0.672518,   0.786512,   0.583995, -589.500000, -127.500000,  -7.500000,   1.732982, -91.140008, -52.633772,   0.632170,  -0.635299,   0.326027,  -0.300622, 
23282,  -0.364946,  -9.903690,  -0.301786,  -0.839776, -52.775768,  -0.336304,  -0.670508,   0.777278,   0.587053, -588.000000, -130.500000,  -6.000000,   1.772155, -91.142544, -52.105984,   0.633647,  -0.636708,   0.323322,  -0.297484, 
23283,  -0.727614,  -9.645517,  -0.112510,  -1.275969, -54.349732,  -0.421290,  -0.670646,   0.782077,   0.610896, -588.000000, -127.500000,   1.500000,   1.814551, -91.144432, -51.570732,   0.635122,  -0.638097,   0.320576,  -0.294272, 
23284,  -0.618072,  -9.832932,  -0.304215,  -1.089300, -54.636556,  -0.763745,  -0.665380,   0.777730,   0.614208, -585.000000, -129.000000,   3.000000,   1.861380, -91.141216, -51.025484,   0.636654,  -0.639470,   0.317784,  -0.290990, 
23285,  -0.589126,  -9.671412,  -0.154577,  -1.787735, -55.827952,  -0.957962,  -0.665755,   0.770488,   0.603978, -585.000000, -132.000000,   0.000000,   1.893298, -91.140064, -50.470564,   0.638149,  -0.640913,   0.314858,  -0.287727, 
23286,  -0.484220,  -9.707352,  -0.158148,  -0.931329, -56.149964,  -0.336340,  -0.663166,   0.774923,   0.632033, -583.500000, -129.000000,   9.000000,   1.925939, -91.121704, -49.909424,   0.639728,  -0.642250,   0.311846,  -0.284460, 
23287,  -0.571669,  -9.845310,  -0.103812,  -1.498089, -56.087308,  -1.098626,  -0.656807,   0.786689,   0.646730, -580.500000, -124.500000,  13.500000,   1.953238, -91.112872, -49.346700,   0.641243,  -0.643659,   0.308820,  -0.281186, 
23288,  -0.516905,  -9.627110,  -0.019845,  -1.501579, -56.017004,  -0.881776,  -0.659722,   0.783431,   0.637402, -582.000000, -126.000000,  10.500000,   1.977053, -91.080992, -48.782368,   0.642851,  -0.644924,   0.305698,  -0.277971, 
23289,  -0.362649,  -9.862133,  -0.092823,  -1.071920, -56.307620,  -0.497343,  -0.654472,   0.776278,   0.631062, -579.000000, -129.000000,   9.000000,   1.977308, -91.059584, -48.219536,   0.644330,  -0.646297,   0.302476,  -0.274865, 
23290,  -0.556852,  -9.669625,   0.050123,  -1.234082, -55.178500,  -0.693741,  -0.639607,   0.785777,   0.639672, -571.500000, -126.000000,  12.000000,   2.005232, -91.024040, -47.658556,   0.645941,  -0.647502,   0.299382,  -0.271642, 
23291,  -0.414735,  -9.815654,  -0.187015,  -1.706022, -54.594100,  -1.439911,  -0.639232,   0.793019,   0.649902, -571.500000, -123.000000,  15.000000,   2.008172, -91.014152, -47.106456,   0.647297,  -0.648866,   0.296248,  -0.268532, 
23292,  -0.515303,  -9.658262,   0.064079,  -0.969623, -53.889708,  -0.590571,  -0.652070,   0.777092,   0.654002, -577.500000, -127.500000,  16.500000,   2.036732, -90.980688, -46.559052,   0.648837,  -0.650019,   0.293230,  -0.265361, 
23293,  -0.404566,  -9.936834,  -0.188792,  -1.138755, -53.532620,  -0.614132,  -0.648392,   0.756995,   0.669194, -574.500000, -133.500000,  22.500000,   2.042078, -90.972440, -46.022392,   0.650127,  -0.651320,   0.290191,  -0.262307, 
23294,  -0.481055,  -9.627187,  -0.056299,  -1.252177, -52.354968,  -0.574152,  -0.630988,   0.762511,   0.676903, -565.500000, -132.000000,  25.500000,   2.064599, -90.954920, -45.491232,   0.651486,  -0.652501,   0.287255,  -0.259204, 
23295,  -0.363459,  -9.734349,  -0.167692,  -1.317832, -51.737360,  -1.019356,  -0.625192,   0.763414,   0.676255, -562.500000, -132.000000,  25.500000,   2.068847, -90.946640, -44.969272,   0.652726,  -0.653755,   0.284289,  -0.256234, 
23296,  -0.440712,  -9.779108,  -0.081282,  -1.162003, -50.939340,  -0.486120,  -0.630116,   0.769390,   0.663868, -565.500000, -130.500000,  21.000000,   2.082001, -90.928176, -44.453812,   0.653997,  -0.654880,   0.281374,  -0.253260, 
23297,  -0.350896,  -9.745613,  -0.175869,  -1.145812, -49.912380,  -0.671731,  -0.627748,   0.764591,   0.667504, -564.000000, -132.000000,  22.500000,   2.081989, -90.919688, -43.949180,   0.655157,  -0.656066,   0.278470,  -0.250399, 
23298,  -0.452774,  -9.615227,  -0.052933,  -1.321573, -48.632536,  -0.972938,  -0.622619,   0.765043,   0.694659, -561.000000, -130.500000,  31.500000,   2.092463, -90.899536, -43.452112,   0.656380,  -0.657132,   0.275639,  -0.247544, 
23299,  -0.327099,  -9.872809,  -0.149221,  -1.112289, -48.331192,  -1.095823,  -0.628195,   0.773374,   0.719727, -564.000000, -126.000000,  39.000000,   2.083100, -90.885288, -42.964564,   0.657481,  -0.658231,   0.272754,  -0.244835, 
23300,  -0.403773,  -9.800896,  -0.026989,  -1.199412, -47.743856,  -0.313719,  -0.613379,   0.774454,   0.699379, -556.500000, -127.500000,  33.000000,   2.096586, -90.871464, -42.482288,   0.658618,  -0.659267,   0.270030,  -0.242021, 
23301,  -0.208373,  -9.737391,  -0.141161,  -1.075342, -47.137424,  -0.734792,  -0.612508,   0.781333,   0.686344, -556.500000, -126.000000,  28.500000,   2.085056, -90.862664, -42.006304,   0.659646,  -0.660361,   0.267207,  -0.239372, 
23302,  -0.446379,  -9.744936,  -0.084973,  -1.336304, -47.051584,  -1.076523,  -0.623662,   0.757349,   0.712231, -561.000000, -132.000000,  37.500000,   2.084660, -90.855904, -41.531616,   0.660663,  -0.661417,   0.264450,  -0.236653, 
23303,  -0.269450,  -9.882427,  -0.187158,  -0.868606, -47.048220,  -0.591682,  -0.607504,   0.748744,   0.722744, -552.000000, -135.000000,  42.000000,   2.081781, -90.849112, -41.059260,   0.661671,  -0.662474,   0.261693,  -0.233961, 
23304,  -0.376834,  -9.727797,  -0.131656,  -1.239279, -47.167232,  -0.450897,  -0.598622,   0.753719,   0.726888, -547.500000, -133.500000,  43.500000,   2.076031, -90.843760, -40.587504,   0.662650,  -0.663529,   0.258920,  -0.231282, 
23305,  -0.157135,  -9.744802,  -0.081178,  -0.803719, -46.558924,  -0.556165,  -0.596425,   0.748106,   0.735061, -546.000000, -135.000000,  46.500000,   2.054645, -90.822584, -40.118040,   0.663665,  -0.664502,   0.256033,  -0.228736, 
23306,  -0.313869,  -9.786935,  -0.103949,  -1.357901, -46.142040,  -1.045130,  -0.587510,   0.758695,   0.758509, -541.500000, -130.500000,  54.000000,   2.040581, -90.810008, -39.651040,   0.664641,  -0.665502,   0.253219,  -0.226141, 
23307,  -0.101272,  -9.791220,  -0.028269,  -1.056287, -46.033072,  -0.471279,  -0.587151,   0.763130,   0.759086, -541.500000, -129.000000,  54.000000,   2.004410, -90.783168, -39.189344,   0.665633,  -0.666442,   0.250277,  -0.223734, 
23308,  -0.089991,  -9.752140,  -0.094912,  -0.732083, -45.254140,  -0.310753,  -0.587014,   0.758332,   0.735244, -541.500000, -132.000000,  46.500000,   1.981530, -90.767096, -38.731800,   0.666563,  -0.667384,   0.247449,  -0.221242, 
23309,  -0.350007,  -9.694448,  -0.044811,  -1.318172, -44.816412,  -0.992130,  -0.582619,   0.747106,   0.751591, -538.500000, -135.000000,  52.500000,   1.962305, -90.749688, -38.278932,   0.667501,  -0.668300,   0.244667,  -0.218758, 
23310,  -0.087597,  -9.837171,  -0.133772,  -0.901259, -43.903624,  -0.706364,  -0.577352,   0.742759,   0.754903, -535.500000, -136.500000,  54.000000,   1.942500, -90.733912, -37.833020,   0.668405,  -0.669201,   0.241922,  -0.216311, 
23311,  -0.365389,  -9.699862,   0.040054,  -1.164115, -43.915832,  -0.504473,  -0.577165,   0.746380,   0.760018, -535.500000, -135.000000,  55.500000,   1.926673, -90.716240, -37.391264,   0.669300,  -0.670050,   0.239214,  -0.213860, 
23312,   0.034489,  -9.881126,  -0.207908,  -0.525572, -42.906496,  -0.375071,  -0.588911,   0.746566,   0.775504, -541.500000, -133.500000,  60.000000,   1.896311, -90.703712, -36.957848,   0.670123,  -0.670941,   0.236479,  -0.211534, 
23313,  -0.417830,  -9.651764,   0.029073,  -1.486164, -42.680540,  -0.886410,  -0.576961,   0.752807,   0.774786, -535.500000, -132.000000,  60.000000,   1.886157, -90.690944, -36.527628,   0.670978,  -0.671779,   0.233880,  -0.209105, 
23314,   0.015120,  -9.851778,  -0.129541,  -0.723019, -41.880336,  -0.620103,  -0.564089,   0.774347,   0.789989, -529.500000, -124.500000,  64.500000,   1.856465, -90.678696, -36.104340,   0.671753,  -0.672617,   0.231199,  -0.206823, 
23315,  -0.343268,  -9.850589,   0.011198,  -1.186685, -41.851896,  -0.485459,  -0.564977,   0.764662,   0.793372, -529.500000, -127.500000,  66.000000,   1.843036, -90.671968, -35.682780,   0.672525,  -0.673449,   0.228633,  -0.204444, 
23316,   0.104072,  -9.784221,  -0.108176,  -0.714053, -40.908828,  -0.245924,  -0.564230,   0.738500,   0.789583, -528.000000, -136.500000,  66.000000,   1.807292, -90.661152, -35.269544,   0.673266,  -0.674284,   0.225979,  -0.202254, 
23317,  -0.292454,  -9.730052,  -0.091619,  -1.193141, -40.794092,  -0.640795,  -0.561144,   0.742573,   0.794374, -526.500000, -135.000000,  67.500000,   1.783464, -90.659376, -34.859316,   0.673950,  -0.675120,   0.223421,  -0.199986, 
23318,  -0.021627,  -9.751553,  -0.241287,  -0.815366, -39.922912,  -0.586344,  -0.556454,   0.765202,   0.796937, -525.000000, -127.500000,  67.500000,   1.758073, -90.657144, -34.455016,   0.674616,  -0.675936,   0.220884,  -0.197761, 
23319,  -0.174417,  -9.822187,  -0.057753,  -1.252387, -39.851416,  -0.720432,  -0.552280,   0.744742,   0.788865, -522.000000, -135.000000,  66.000000,   1.726635, -90.651344, -34.053728,   0.675289,  -0.676735,   0.218324,  -0.195597, 
23320,   0.000019,  -9.709410,  -0.071130,  -0.789040, -38.961180,  -0.377502,  -0.550970,   0.729443,   0.800421, -520.500000, -139.500000,  70.500000,   1.703650, -90.639656, -33.658132,   0.675996,  -0.677464,   0.215834,  -0.193426, 
23321,  -0.104327,  -9.862577,  -0.099160,  -0.910216, -39.104620,  -0.651177,  -0.546826,   0.744016,   0.797292, -519.000000, -135.000000,  69.000000,   1.663745, -90.634184, -33.266040,   0.676611,  -0.678233,   0.213270,  -0.191358, 
23322,  -0.014351,  -9.714065,  -0.079503,  -0.927956, -38.285972,  -0.610719,  -0.553510,   0.733427,   0.801322, -522.000000, -138.000000,  70.500000,   1.638023, -90.624032, -32.877002,   0.677275,  -0.678940,   0.210799,  -0.189232, 
23323,  -0.088907,  -9.844767,  -0.178115,  -1.156392, -38.819520,  -0.674932,  -0.548944,   0.723016,   0.813131, -519.000000, -141.000000,  75.000000,   1.594736, -90.628624, -32.490264,   0.677819,  -0.679761,   0.208262,  -0.187198, 
23324,   0.022292,  -9.736583,  -0.125868,  -0.574720, -38.088708,  -0.142066,  -0.539345,   0.736862,   0.818429, -514.500000, -136.500000,  76.500000,   1.576045, -90.623056, -32.104062,   0.678447,  -0.680457,   0.205851,  -0.185034, 
23325,  -0.131523,  -9.862310,  -0.183756,  -1.258850, -38.747760,  -0.605162,  -0.533345,   0.744193,   0.832549, -511.500000, -133.500000,  81.000000,   1.532463, -90.632936, -31.720138,   0.678929,  -0.681274,   0.203328,  -0.183002, 
23326,   0.082775,  -9.654041,  -0.154869,  -0.696201, -38.249544,  -0.337727,  -0.532799,   0.752249,   0.838241, -511.500000, -130.500000,  82.500000,   1.503116, -90.627008, -31.333516,   0.679535,  -0.681975,   0.200847,  -0.180898, 
23327,  -0.108667,  -9.863546,  -0.204242,  -1.007527, -39.425604,  -0.840714,  -0.526286,   0.762023,   0.838748, -508.500000, -127.500000,  82.500000,   1.463740, -90.637544, -30.943912,   0.680032,  -0.682796,   0.198315,  -0.178807, 
23328,   0.030549,  -9.695732,  -0.184205,  -1.139623, -39.690164,  -0.446534,  -0.522517,   0.769354,   0.825390, -507.000000, -126.000000,  78.000000,   1.434179, -90.640184, -30.547210,   0.680576,  -0.683535,   0.195777,  -0.176623, 
23329,   0.026793,  -9.811353,  -0.284049,  -0.767452, -40.287728,  -0.583595,  -0.521411,   0.747628,   0.822178, -505.500000, -133.500000,  78.000000,   1.398608, -90.652520, -30.145454,   0.681061,  -0.684348,   0.193188,  -0.174428, 
23330,  -0.187957,  -9.690876,  -0.095535,  -1.372672, -40.759476,  -0.911949,  -0.522128,   0.738757,   0.821023, -505.500000, -136.500000,  78.000000,   1.378448, -90.652808, -29.736846,   0.681652,  -0.685073,   0.190629,  -0.172121, 
23331,   0.187525,  -9.865019,  -0.374954,  -0.710744, -40.616532,  -0.493079,  -0.521224,   0.751249,   0.827293, -505.500000, -132.000000,  79.500000,   1.335449, -90.664192, -29.329000,   0.682126,  -0.685883,   0.187952,  -0.169934, 
23332,  -0.229636,  -9.621014,  -0.075142,  -1.344739, -41.418096,  -0.966858,  -0.516845,   0.737216,   0.833987, -502.500000, -136.500000,  82.500000,   1.311651, -90.669872, -28.915106,   0.682659,  -0.686622,   0.185339,  -0.167601, 
23333,   0.222580,  -9.886517,  -0.331035,  -0.811120, -41.230564,  -0.583421,  -0.519898,   0.738757,   0.848502, -504.000000, -135.000000,  87.000000,   1.262728, -90.676312, -28.501938,   0.683150,  -0.687403,   0.182581,  -0.165424, 
23334,  -0.195410,  -9.677140,  -0.156368,  -1.130835, -41.480360,  -0.869875,  -0.510845,   0.744547,   0.848107, -499.500000, -133.500000,  87.000000,   1.246700, -90.685760, -28.084770,   0.683676,  -0.688152,   0.179998,  -0.163020, 
23335,   0.160938,  -9.810759,  -0.261213,  -1.023667, -41.888512,  -0.614858,  -0.500329,   0.733046,   0.845078, -493.500000, -138.000000,  87.000000,   1.196071, -90.696176, -27.668816,   0.684118,  -0.688930,   0.177210,  -0.160824, 
23336,  -0.161189,  -9.773617,  -0.147326,  -0.924087, -41.400360,  -0.787850,  -0.497414,   0.736304,   0.854407, -492.000000, -136.500000,  90.000000,   1.191300, -90.704776, -27.249028,   0.684643,  -0.689632,   0.174668,  -0.158332, 
23337,   0.078666,  -9.785478,  -0.329678,  -1.131766, -41.550828,  -0.731890,  -0.493783,   0.748433,   0.864891, -490.500000, -132.000000,  93.000000,   1.148789, -90.731200, -26.834226,   0.685001,  -0.690488,   0.171956,  -0.156072, 
23338,  -0.229867,  -9.757908,  -0.183827,  -1.040184, -40.972808,  -0.729315,  -0.491227,   0.747256,   0.873641, -489.000000, -132.000000,  96.000000,   1.153509, -90.741640, -26.418538,   0.685501,  -0.691158,   0.169491,  -0.153541, 
23339,   0.285829,  -9.759021,  -0.391263,  -0.902816, -40.945540,  -0.553258,  -0.485789,   0.743723,   0.872416, -486.000000, -133.500000,  96.000000,   1.094510, -90.763696, -26.009642,   0.685827,  -0.691970,   0.166699,  -0.151419, 
23340,  -0.362454,  -9.750356,  -0.142319,  -1.243640, -40.687128,  -0.622045,  -0.479635,   0.749062,   0.872346, -483.000000, -132.000000,  96.000000,   1.095373, -90.773384, -25.598384,   0.686313,  -0.692625,   0.164234,  -0.148938, 
23341,   0.315713,  -9.761535,  -0.375698,  -0.785483, -39.495680,  -0.526206,  -0.482533,   0.748610,   0.872669, -484.500000, -132.000000,  96.000000,   1.057359, -90.787056, -25.198266,   0.686701,  -0.693333,   0.161606,  -0.146753, 
23342,  -0.335576,  -9.771140,  -0.146264,  -1.242240, -40.563108,  -0.724262,  -0.482720,   0.744989,   0.867555, -484.500000, -133.500000,  94.500000,   1.043000, -90.797960, -24.795174,   0.687120,  -0.693974,   0.159092,  -0.144407, 
23343,   0.060994,  -9.809781,  -0.215531,  -0.733198, -39.230048,  -0.551855,  -0.480352,   0.740191,   0.871190, -483.000000, -135.000000,  96.000000,   1.041944, -90.800888, -24.395018,   0.687601,  -0.694545,   0.156665,  -0.142010, 
23344,  -0.131155,  -9.719462,  -0.099262,  -1.304032, -39.896764,  -0.913271,  -0.475085,   0.735844,   0.874502, -480.000000, -136.500000,  97.500000,   1.011317, -90.805248, -23.997590,   0.688033,  -0.695159,   0.154079,  -0.139806, 
23345,  -0.077515,  -9.761232,  -0.035022,  -0.861871, -39.143484,  -0.690982,  -0.467092,   0.731134,   0.882028, -475.500000, -138.000000, 100.500000,   1.016349, -90.796832, -23.599678,   0.688566,  -0.695627,   0.151683,  -0.137396, 
23346,   0.107585,  -9.784606,  -0.226773,  -0.885071, -38.240092,  -0.313531,  -0.467279,   0.727513,   0.876913, -475.500000, -139.500000,  99.000000,   0.973181, -90.800104, -23.210452,   0.688953,  -0.696208,   0.149064,  -0.135314, 
23347,  -0.390752,  -9.661730,  -0.038338,  -1.172335, -36.670672,  -1.253872,  -0.458431,   0.726875,   0.861751, -471.000000, -141.000000,  94.500000,   0.983886, -90.798792, -22.832686,   0.689419,  -0.696678,   0.146831,  -0.132979, 
23348,   0.194455,  -9.894051,  -0.349545,  -0.454699, -36.362976,  -0.092678,  -0.461329,   0.726424,   0.862075, -472.500000, -141.000000,  94.500000,   0.956706, -90.806808, -22.469372,   0.689765,  -0.697230,   0.144470,  -0.130950, 
23349,  -0.725977,  -9.606977,   0.060970,  -1.450511, -37.026260,  -1.332878,  -0.463664,   0.736835,   0.877744, -474.000000, -136.500000,  99.000000,   0.992342, -90.808880, -22.097374,   0.690206,  -0.697655,   0.142420,  -0.128488, 
23350,   0.287924,  -9.864113,  -0.446205,  -0.524055, -36.443288,  -0.173195,  -0.457322,   0.745795,   0.882789, -471.000000, -133.500000, 100.500000,   0.972197, -90.818712, -21.730198,   0.690529,  -0.698189,   0.140073,  -0.126387, 
23351,  -0.720060,  -9.689264,  -0.049205,  -1.316571, -37.284804,  -0.802215,  -0.442832,   0.748052,   0.881168, -463.500000, -133.500000, 100.500000,   1.002764, -90.834224, -21.357354,   0.690881,  -0.698704,   0.138002,  -0.123934, 
23352,  -0.011075,  -9.799458,  -0.244192,  -0.595568, -35.011552,  -0.296496,  -0.444404,   0.735109,   0.902701, -463.500000, -136.500000, 108.000000,   1.019414, -90.830960, -20.995084,   0.691312,  -0.699103,   0.135890,  -0.121653, 
23353,  -0.368598,  -9.681078,  -0.132612,  -1.227889, -35.260688,  -0.788484,  -0.444046,   0.739544,   0.903278, -463.500000, -135.000000, 108.000000,   1.006802, -90.845960, -20.642872,   0.691570,  -0.699614,   0.133679,  -0.119586, 
23354,  -0.458073,  -9.783974,   0.030453,  -0.330817, -33.456470,  -0.500930,  -0.431395,   0.751850,   0.894063, -457.500000, -132.000000, 105.000000,   1.069107, -90.823368, -20.298524,   0.692128,  -0.699805,   0.131928,  -0.117151, 
23355,  -0.245884,  -9.875347,  -0.162256,  -1.386898, -35.150216,  -0.904312,  -0.420878,   0.740350,   0.891034, -451.500000, -136.500000, 105.000000,   1.060060, -90.834552, -19.955776,   0.692403,  -0.700279,   0.129792,  -0.115124, 
23356,  -0.353676,  -9.634577,   0.179464,  -0.577105, -34.859736,  -0.171754,  -0.424664,   0.730213,   0.894740, -453.000000, -139.500000, 106.500000,   1.112798, -90.807312, -19.601768,   0.692980,  -0.700460,   0.127920,  -0.112692, 
23357,  -0.054634,  -9.909136,  -0.203870,  -0.951450, -35.894728,  -0.951422,  -0.439325,   0.727141,   0.900898, -460.500000, -139.500000, 108.000000,   1.081134, -90.813808, -19.247538,   0.693246,  -0.700916,   0.125568,  -0.110735, 
23358,  -0.465627,  -9.717214,   0.055229,  -0.905508, -35.109204,  -0.397378,  -0.433342,   0.731665,   0.905365, -457.500000, -138.000000, 109.500000,   1.128448, -90.799304, -18.889136,   0.693722,  -0.701167,   0.123647,  -0.108291, 
23359,  -0.047961,  -9.772024,  -0.227858,  -0.909605, -35.490616,  -0.765855,  -0.415954,   0.734374,   0.903421, -448.500000, -138.000000, 109.500000,   1.112315, -90.808672, -18.536066,   0.693985,  -0.701623,   0.121398,  -0.106243, 
23360,  -0.628785,  -9.701621,  -0.029189,  -1.031767, -34.915100,  -0.769547,  -0.423914,   0.744697,   0.915200, -453.000000, -133.500000, 112.500000,   1.164470, -90.804368, -18.179570,   0.694392,  -0.701923,   0.119526,  -0.103769, 
23361,  -0.244672,  -9.818459,  -0.250340,  -0.911734, -34.186668,  -0.912902,  -0.423572,   0.746326,   0.906125, -453.000000, -133.500000, 109.500000,   1.180656, -90.811656, -17.832282,   0.694666,  -0.702302,   0.117502,  -0.101556, 
23362,  -0.525006,  -9.635959,   0.025334,  -1.006290, -34.042420,  -0.579702,  -0.414553,   0.746503,   0.886426, -448.500000, -135.000000, 103.500000,   1.212749, -90.801024, -17.487212,   0.695061,  -0.702556,   0.115571,  -0.099277, 
23363,  -0.204692,  -9.857095,  -0.180298,  -0.553337, -33.386960,  -0.538892,  -0.420691,   0.743971,   0.896149, -451.500000, -135.000000, 106.500000,   1.228289, -90.798912, -17.149476,   0.695382,  -0.702870,   0.113593,  -0.097135, 
23364,  -0.695560,  -9.778956,   0.074129,  -1.270010, -33.829468,  -0.805101,  -0.424802,   0.735011,   0.918583, -453.000000, -136.500000, 114.000000,   1.270269, -90.790424, -16.810550,   0.695761,  -0.703118,   0.111761,  -0.094828, 
23365,  -0.184333,  -9.821190,  -0.042679,  -0.544982, -33.266986,  -0.265910,  -0.409783,   0.742519,   0.913003, -445.500000, -135.000000, 112.500000,   1.299751, -90.774312, -16.474409,   0.696152,  -0.703310,   0.109863,  -0.092620, 
23366,  -0.286469,  -9.665555,  -0.150547,  -1.116973, -33.870928,  -0.142728,  -0.401977,   0.734188,   0.915414, -441.000000, -138.000000, 114.000000,   1.295789, -90.782032, -16.137644,   0.696368,  -0.703678,   0.107777,  -0.090590, 
23367,  -0.536944,  -9.794813,   0.100546,  -0.665017, -32.449284,  -1.235171,  -0.403565,   0.718438,   0.927294, -441.000000, -142.500000, 118.500000,   1.349155, -90.761568, -15.801915,   0.696803,  -0.703823,   0.106023,  -0.088241, 
23368,  -0.231890,  -9.791015,  -0.171472,  -1.465873, -32.797218,  -0.823730,  -0.397069,   0.725405,   0.918148, -438.000000, -141.000000, 115.500000,   1.344091, -90.769688, -15.472630,   0.697009,  -0.704188,   0.103977,  -0.086263, 
23369,  -0.363751,  -9.561373,   0.240226,  -0.854497, -31.757802,  -0.815934,  -0.390385,   0.735994,   0.914118, -435.000000, -138.000000, 114.000000,   1.366624, -90.731968, -15.144229,   0.697494,  -0.704225,   0.102067,  -0.084159, 
23370,  -0.010006,  -9.917698,  -0.217117,  -0.813178, -31.890410,  -0.635073,  -0.387674,   0.732824,   0.908679, -433.500000, -139.500000, 112.500000,   1.325357, -90.729240, -14.824995,   0.697707,  -0.704520,   0.099851,  -0.082471, 
23371,  -0.542358,  -9.706299,   0.072960,  -0.845473, -30.786474,  -0.476568,  -0.390914,   0.730744,   0.918077, -435.000000, -139.500000, 115.500000,   1.364694, -90.711120, -14.507668,   0.698075,  -0.704653,   0.098126,  -0.080312, 
23372,  -0.035128,  -9.803855,  -0.367719,  -0.727497, -31.054828,  -0.715016,  -0.393608,   0.736720,   0.933169, -436.500000, -136.500000, 120.000000,   1.342045, -90.727472, -14.199228,   0.698178,  -0.705039,   0.096104,  -0.078560, 
23373,  -0.568585,  -9.740331,   0.000151,  -0.784094, -31.515716,  -0.410522,  -0.382391,   0.731284,   0.921643, -430.500000, -139.500000, 117.000000,   1.381607, -90.725576, -13.882715,   0.698431,  -0.705259,   0.094395,  -0.076389, 
23374,  -0.070499,  -9.854093,  -0.287164,  -0.796333, -31.880264,  -0.382322,  -0.367201,   0.739606,   0.911525, -423.000000, -138.000000, 114.000000,   1.378031, -90.739544, -13.566355,   0.698545,  -0.705598,   0.092434,  -0.074470, 
23375,  -0.391987,  -9.629432,   0.038723,  -0.938187, -32.370362,  -0.610166,  -0.361046,   0.744944,   0.911455, -420.000000, -136.500000, 114.000000,   1.387310, -90.730104, -13.242328,   0.698816,  -0.705791,   0.090489,  -0.072445, 
23376,  -0.103652,  -9.844861,  -0.095602,  -0.743143, -32.638222,  -0.717211,  -0.364490,   0.736436,   0.906087, -421.500000, -139.500000, 112.500000,   1.374171, -90.721464, -12.915927,   0.699069,  -0.706008,   0.088394,  -0.070542, 
23377,  -0.478562,  -9.831954,   0.136497,  -1.117721, -33.198432,  -0.844429,  -0.367543,   0.737977,   0.920600, -423.000000, -138.000000, 117.000000,   1.395832, -90.709552, -12.583480,   0.699364,  -0.706179,   0.086471,  -0.068389, 
23378,  -0.036130,  -9.794844,  -0.128113,  -0.424170, -33.294662,  -0.211887,  -0.367543,   0.737977,   0.920600, -423.000000, -138.000000, 117.000000,   1.388615, -90.698736, -12.250031,   0.699614,  -0.706358,   0.084364,  -0.066406, 
23379,  -0.509278,  -9.707562,   0.044287,  -1.212683, -34.151016,  -1.036459,  -0.367559,   0.735170,   0.910948, -423.000000, -139.500000, 114.000000,   1.407661, -90.694824, -11.909756,   0.699841,  -0.706566,   0.082380,  -0.064213, 
23380,   0.009148,  -9.850312,  -0.269453,  -0.245948, -34.371260,  -0.176833,  -0.364645,   0.738428,   0.920277, -421.500000, -138.000000, 117.000000,   1.399393, -90.692520, -11.566880,   0.700043,  -0.706805,   0.080214,  -0.062172, 
