Standard output of YIS Manager:
  TID,     AccX,     AccY,     AccZ,    AngVX,    AngVY,    AngVZ,     MagX,     MagY,     MagZ, NormMagX, NormMagY, NormMagZ,    Pitch,     Roll,      Yaw,       q0,       q1,       q2,       q3, 
22513,   0.161877,   9.761309,  -0.098559,  -0.101307,   0.268652,  -0.047167,   0.209679,  -0.938948,  -0.411565, -61.500000, -802.500000, -213.000000,  -0.974304,  89.979400,  28.816362,   0.683444,   0.686190,   0.170079,   0.181788, 
22514,   0.165371,   9.825614,   0.091870,  -0.161139,   0.204667,  -0.022855,   0.202419,  -0.922560,  -0.408283, -66.000000, -796.500000, -213.000000,  -0.970836,  89.971712,  28.808252,   0.683508,   0.686150,   0.170039,   0.181731, 
22515,   0.201275,   9.796463,  -0.021520,   0.034608,   0.117063,  -0.057066,   0.201531,  -0.932245,  -0.404901, -66.000000, -799.500000, -211.500000,  -0.975747,  89.968144,  28.804080,   0.683528,   0.686143,   0.169979,   0.181740, 
22516,   0.154420,   9.783304,  -0.012108,  -0.168916,   0.180686,  -0.077518,   0.210396,  -0.930076,  -0.410410, -61.500000, -799.500000, -213.000000,  -0.974304,  89.977712,  28.802024,   0.683477,   0.686201,   0.169991,   0.181705, 
22517,   0.181368,   9.840710,   0.060393,  -0.170020,   0.259689,  -0.091598,   0.207481,  -0.933334,  -0.419739, -63.000000, -801.000000, -216.000000,  -0.978750,  89.970040,  28.795828,   0.683526,   0.686171,   0.169915,   0.181706, 
22518,   0.204150,   9.799957,  -0.035333,  -0.061965,   0.188314,  -0.083940,   0.203524,  -0.944286,  -0.411495, -64.500000, -804.000000, -213.000000,  -0.980099,  89.972768,  28.787588,   0.683520,   0.686201,   0.169862,   0.181661, 
22519,   0.183027,   9.789344,   0.031453,  -0.127886,   0.188733,  -0.031474,   0.209337,  -0.940576,  -0.402490, -61.500000, -802.500000, -210.000000,  -0.983007,  89.970656,  28.794716,   0.683517,   0.686183,   0.169884,   0.181724, 
22520,   0.137788,   9.789086,   0.021869,  -0.083408,   0.338691,  -0.066033,   0.203916,  -0.934237,  -0.391612, -64.500000, -799.500000, -207.000000,  -0.978377,  89.968240,  28.799832,   0.683530,   0.686153,   0.169938,   0.181730, 
22521,   0.171851,   9.810118,   0.007777,  -0.076541,   0.161662,  -0.083607,   0.204291,  -0.926995,  -0.381382, -64.500000, -796.500000, -204.000000,  -0.977779,  89.968272,  28.813802,   0.683509,   0.686132,   0.170026,   0.181810, 
22522,   0.130493,   9.815393,   0.015538,  -0.168385,   0.227935,  -0.115353,   0.209524,  -0.936956,  -0.397375, -61.500000, -801.000000, -208.500000,  -0.974001,  89.970704,  28.821342,   0.683489,   0.686130,   0.170097,   0.181829, 
22523,   0.137322,   9.809765,  -0.045004,  -0.033139,   0.205958,  -0.099748,   0.209679,  -0.938948,  -0.411565, -61.500000, -802.500000, -213.000000,  -0.969107,  89.973632,  28.818014,   0.683484,   0.686145,   0.170111,   0.181776, 
22524,   0.184619,   9.813214,  -0.060650,  -0.206107,   0.275546,  -0.099450,   0.201906,  -0.925003,  -0.394671, -66.000000, -796.500000, -208.500000,  -0.969601,  89.981136,  28.817590,   0.683439,   0.686191,   0.170118,   0.181765, 
22525,   0.179583,   9.788244,  -0.004573,  -0.314217,   0.437853,  -0.107427,   0.202761,  -0.920931,  -0.417358, -66.000000, -796.500000, -216.000000,  -0.971263,  89.980784,  28.804840,   0.683459,   0.686211,   0.170031,   0.181699, 
22526,   0.151958,   9.819566,  -0.015249,  -0.189374,   0.425799,  -0.088860,   0.205830,  -0.919665,  -0.422220, -64.500000, -796.500000, -217.500000,  -0.970044,  89.979328,  28.792380,   0.683489,   0.686219,   0.169961,   0.181620, 
22527,   0.183657,   9.800814,  -0.098960,  -0.185954,   0.375068,  -0.150645,   0.201702,  -0.931431,  -0.409438, -66.000000, -799.500000, -213.000000,  -0.970569,  89.986912,  28.782788,   0.683459,   0.686279,   0.169913,   0.181555, 
22528,   0.153774,   9.811039,   0.046659,  -0.455865,   0.481399,  -0.160432,   0.203899,  -0.937044,  -0.401265, -64.500000, -801.000000, -210.000000,  -0.967370,  89.985432,  28.783124,   0.683472,   0.686265,   0.169932,   0.181540, 
22529,   0.185312,   9.841178,   0.118259,  -0.262899,   0.420033,  -0.089773,   0.212610,  -0.932883,  -0.392584, -60.000000, -799.500000, -207.000000,  -0.967164,  89.971712,  28.804928,   0.683519,   0.686150,   0.170041,   0.181689, 
22530,   0.184461,   9.808432,  -0.030228,  -0.091679,   0.267342,  -0.106071,   0.209679,  -0.938948,  -0.411565, -61.500000, -802.500000, -213.000000,  -0.972032,  89.968816,  28.808150,   0.683524,   0.686135,   0.170027,   0.181741, 
22531,   0.164870,   9.788164,   0.070857,  -0.306887,   0.304213,  -0.144533,   0.207311,  -0.934149,  -0.415201, -63.000000, -801.000000, -214.500000,  -0.971678,  89.965344,  28.802932,   0.683553,   0.686121,   0.169992,   0.181713, 
22532,   0.189964,   9.799871,   0.041151,  -0.068468,   0.298922,  -0.105255,   0.204070,  -0.936229,  -0.405802, -64.500000, -801.000000, -211.500000,  -0.974312,  89.957680,  28.802384,   0.683596,   0.686080,   0.169961,   0.181737, 
22533,   0.168289,   9.816043,   0.007164,  -0.058415,   0.268688,  -0.020585,   0.198600,  -0.938310,  -0.423882, -67.500000, -802.500000, -217.500000,  -0.975893,  89.958384,  28.780192,   0.683624,   0.686120,   0.169820,   0.181613, 
22534,   0.192826,   9.790574,  -0.015096,  -0.092897,   0.241678,  -0.099772,   0.199146,  -0.930253,  -0.418189, -67.500000, -799.500000, -216.000000,  -0.977199,  89.958808,  28.762092,   0.683648,   0.686151,   0.169704,   0.181512, 
22535,   0.154393,   9.807796,   0.022989,  -0.118775,   0.232928,  -0.082806,   0.194488,  -0.947270,  -0.401448, -69.000000, -804.000000, -210.000000,  -0.977775,  89.957488,  28.750620,   0.683674,   0.686161,   0.169630,   0.181449, 
22536,   0.183494,   9.807231,  -0.054105,  -0.101381,   0.259712,  -0.056030,   0.203370,  -0.942294,  -0.397305, -64.500000, -802.500000, -208.500000,  -0.979512,  89.960392,  28.753408,   0.683649,   0.686177,   0.169641,   0.181472, 
22537,   0.117897,   9.810919,   0.012687,  -0.281534,   0.268747,  -0.110072,   0.213123,  -0.930439,  -0.406197, -60.000000, -799.500000, -211.500000,  -0.974659,  89.964040,  28.759956,   0.683625,   0.686182,   0.169715,   0.181477, 
22538,   0.190187,   9.785766,   0.034454,  -0.117170,   0.383810,  -0.149732,   0.204617,  -0.928173,  -0.400110, -64.500000, -798.000000, -210.000000,  -0.974889,  89.959240,  28.763074,   0.683648,   0.686149,   0.169725,   0.181504, 
22539,   0.150871,   9.821404,   0.022382,  -0.204339,   0.259677,  -0.109383,   0.203182,  -0.945915,  -0.402420, -64.500000, -804.000000, -210.000000,  -0.973453,  89.958344,  28.761754,   0.683658,   0.686143,   0.169724,   0.181488, 
22540,   0.155983,   9.816545,   0.080843,  -0.101457,   0.232447,  -0.169654,   0.209508,  -0.939762,  -0.407028, -61.500000, -802.500000, -211.500000,  -0.975201,  89.948984,  28.768396,   0.683700,   0.686080,   0.169738,   0.181552, 
22541,   0.121017,   9.790321,  -0.039828,   0.096046,   0.250327,  -0.062725,   0.210771,  -0.922834,  -0.400180, -61.500000, -796.500000, -210.000000,  -0.969003,  89.955224,  28.775198,   0.683662,   0.686098,   0.169826,   0.181547, 
22542,   0.156237,   9.859107,   0.073202,  -0.065280,   0.437559,  -0.052473,   0.204241,  -0.935415,  -0.410340, -64.500000, -801.000000, -213.000000,  -0.965952,  89.950200,  28.770032,   0.683705,   0.686071,   0.169806,   0.181505, 
22543,   0.077566,   9.800647,  -0.095620,   0.039925,   0.650660,  -0.082339,   0.206952,  -0.938585,  -0.415779, -63.000000, -802.500000, -214.500000,  -0.954736,  89.963672,  28.759946,   0.683658,   0.686150,   0.169834,   0.181358, 
22544,   0.005695,   9.812748,  -0.091426,  -0.057623,   1.220606,  -0.003664,   0.212935,  -0.934060,  -0.411312, -60.000000, -801.000000, -213.000000,  -0.934431,  89.977040,  28.760434,   0.683610,   0.686199,   0.169979,   0.181220, 
22545,  -0.031012,   9.847878,  -0.152463,  -0.132335,   2.332208,  -0.106579,   0.212748,  -0.937682,  -0.416427, -60.000000, -802.500000, -214.500000,  -0.908064,  89.993920,  28.761624,   0.683549,   0.686259,   0.170171,   0.181045, 
22546,  -0.001478,   9.743541,  -0.040182,  -0.207451,   3.435888,  -0.018174,   0.217314,  -0.948093,  -0.404617, -57.000000, -805.500000, -210.000000,  -0.885907,  90.009128,  28.782576,   0.683459,   0.686285,   0.170454,   0.181015, 
22547,  -0.058094,   9.835556,  -0.140870,  -0.066185,   4.689660,  -0.055263,   0.212390,  -0.942117,  -0.417004, -60.000000, -804.000000, -214.500000,  -0.854599,  90.029120,  28.808670,   0.683347,   0.686318,   0.170828,   0.180954, 
22548,   0.029857,   9.793273,  -0.157948,  -0.030009,   5.739136,  -0.079734,   0.206797,  -0.936592,  -0.401588, -63.000000, -801.000000, -210.000000,  -0.834294,  90.045312,  28.845088,   0.683223,   0.686329,   0.171194,   0.181026, 
22549,   0.151989,   9.859358,  -0.051353,  -0.081569,   6.620398,   0.013681,   0.209524,  -0.936956,  -0.397375, -61.500000, -801.000000, -208.500000,  -0.823310,  90.054344,  28.899890,   0.683100,   0.686285,   0.171602,   0.181273, 
22550,  -0.058037,   9.898672,  -0.079449,  -0.098814,   7.474184,  -0.032260,   0.209149,  -0.944198,  -0.407605, -61.500000, -804.000000, -211.500000,  -0.804550,  90.068624,  28.957528,   0.682952,   0.686255,   0.172082,   0.181483, 
22551,   0.062753,   9.761272,  -0.180741,  -0.100226,   8.212902,   0.041769,   0.206064,  -0.948270,  -0.412396, -63.000000, -805.500000, -213.000000,  -0.799104,  90.079464,  29.020152,   0.682797,   0.686217,   0.172507,   0.181808, 
22552,   0.076177,   9.807648,  -0.043691,  -0.032931,   8.933097,   0.003088,   0.218185,  -0.941214,  -0.417652, -57.000000, -804.000000, -214.500000,  -0.789020,  90.086344,  29.090284,   0.682661,   0.686138,   0.172998,   0.182155, 
22553,   0.084954,   9.804573,   0.001224,   0.059395,   9.582152,  -0.019174,   0.221271,  -0.937142,  -0.412861, -55.500000, -802.500000, -213.000000,  -0.781177,  90.088112,  29.177192,   0.682526,   0.686006,   0.173568,   0.182624, 
22554,   0.091162,   9.821739,  -0.027635,  -0.160448,   9.929607,  -0.015423,   0.207498,  -0.930528,  -0.410086, -63.000000, -799.500000, -213.000000,  -0.774901,  90.095792,  29.263148,   0.682354,   0.685914,   0.174133,   0.183087, 
22555,   0.037382,   9.747727,  -0.150841,   0.104847,  10.711987,   0.018805,   0.203728,  -0.937858,  -0.396727, -64.500000, -801.000000, -208.500000,  -0.761301,  90.107688,  29.344486,   0.682177,   0.685842,   0.174720,   0.183473, 
22556,   0.043206,   9.836081,  -0.007917,  -0.025079,  11.468430,   0.022110,   0.212064,  -0.940940,  -0.398277, -60.000000, -802.500000, -208.500000,  -0.749753,  90.111856,  29.441624,   0.682017,   0.685703,   0.175378,   0.183976, 
22557,   0.045441,   9.790263,  -0.161965,   0.059684,  12.233511,   0.071449,   0.208791,  -0.948633,  -0.408182, -61.500000, -805.500000, -211.500000,  -0.739681,  90.128456,  29.541222,   0.681776,   0.685636,   0.176061,   0.184484, 
22558,   0.003660,   9.810299,  -0.040099,   0.049127,  12.900635,   0.057076,   0.200113,  -0.947181,  -0.397558, -66.000000, -804.000000, -208.500000,  -0.727197,  90.132408,  29.641030,   0.681608,   0.685483,   0.176738,   0.184996, 
22559,   0.038504,   9.852057,  -0.010302,  -0.018921,  13.843987,   0.107898,   0.208995,  -0.942206,  -0.393415, -61.500000, -802.500000, -207.000000,  -0.717233,  90.138120,  29.753602,   0.681405,   0.685325,   0.177480,   0.185597, 
22560,   0.090135,   9.797051,  -0.096119,   0.116265,  14.474844,   0.024864,   0.217347,  -0.942480,  -0.385312, -57.000000, -802.500000, -204.000000,  -0.708101,  90.148688,  29.887590,   0.681136,   0.685162,   0.178352,   0.186322, 
22561,   0.140113,   9.800168,  -0.009580,  -0.061548,  14.919944,   0.007605,   0.220604,  -0.937593,  -0.385059, -55.500000, -801.000000, -204.000000,  -0.709354,  90.150400,  30.040822,   0.680871,   0.684933,   0.179263,   0.187236, 
22562,   0.127707,   9.756137,  -0.102359,   0.312369,  15.213074,   0.092358,   0.214791,  -0.941302,  -0.394063, -58.500000, -802.500000, -207.000000,  -0.712457,  90.150704,  30.191424,   0.680617,   0.684702,   0.180144,   0.188149, 
22563,   0.114841,   9.853631,   0.107251,  -0.023860,  15.655578,   0.075242,   0.211005,  -0.951439,  -0.390357, -60.000000, -805.500000, -205.500000,  -0.712442,  90.146064,  30.336472,   0.680406,   0.684447,   0.181003,   0.189017, 
22564,   0.073885,   9.804164,  -0.072038,   0.098924,  16.209953,   0.107718,   0.211193,  -0.947819,  -0.385242, -60.000000, -804.000000, -204.000000,  -0.712470,  90.149792,  30.483886,   0.680142,   0.684237,   0.181890,   0.189887, 
22565,   0.088070,   9.842675,   0.125404,  -0.013886,  16.667768,   0.093335,   0.207936,  -0.952706,  -0.385495, -61.500000, -805.500000, -204.000000,  -0.709117,  90.139080,  30.636300,   0.679961,   0.683928,   0.182803,   0.190790, 
22566,   0.005115,   9.785381,   0.008878,   0.220883,  17.250340,   0.084031,   0.221913,  -0.952891,  -0.373502, -54.000000, -805.500000, -199.500000,  -0.700740,  90.131120,  30.800986,   0.679752,   0.683608,   0.183823,   0.191731, 
22567,   0.019629,   9.828691,   0.166852,   0.121939,  18.051158,   0.080730,   0.222630,  -0.944020,  -0.372348, -54.000000, -802.500000, -199.500000,  -0.687337,  90.115216,  30.985096,   0.679564,   0.683199,   0.184975,   0.192770, 
22568,  -0.008976,   9.790278,  -0.052010,   0.191929,  18.664804,   0.082733,   0.204541,  -0.952794,  -0.361906, -63.000000, -804.000000, -196.500000,  -0.674960,  90.115216,  31.164562,   0.679277,   0.682884,   0.186117,   0.193759, 
22569,   0.041628,   9.818939,  -0.002433,   0.200958,  19.094712,   0.076933,   0.207285,  -0.950351,  -0.348040, -61.500000, -802.500000, -192.000000,  -0.663551,  90.110008,  31.347854,   0.679013,   0.682532,   0.187267,   0.194785, 
22570,   0.060946,   9.787556,  -0.010769,   0.165731,  19.483072,   0.044765,   0.207814,  -0.945100,  -0.352000, -61.500000, -801.000000, -193.500000,  -0.658117,  90.115752,  31.538444,   0.678661,   0.682243,   0.188444,   0.195871, 
22571,   0.187006,   9.816232,   0.005992,   0.270035,  19.909114,   0.099899,   0.213407,  -0.950625,  -0.367416, -58.500000, -804.000000, -198.000000,  -0.663668,  90.112104,  31.733726,   0.678338,   0.681908,   0.189567,   0.197067, 
22572,   0.159297,   9.812540,   0.003554,   0.180529,  20.123892,   0.117234,   0.210492,  -0.953883,  -0.376744, -60.000000, -805.500000, -201.000000,  -0.673934,  90.110288,  31.922668,   0.678007,   0.681603,   0.190627,   0.198249, 
22573,   0.206521,   9.813972,   0.048104,   0.259975,  20.430864,   0.070378,   0.213065,  -0.952254,  -0.358340, -58.500000, -804.000000, -195.000000,  -0.686436,  90.103256,  32.118062,   0.677692,   0.681260,   0.191704,   0.199492, 
22574,   0.148218,   9.808924,   0.066026,   0.029864,  20.524702,   0.148804,   0.221791,  -0.945286,  -0.340008, -54.000000, -801.000000, -189.000000,  -0.690977,  90.096560,  32.332528,   0.677356,   0.680875,   0.192942,   0.200800, 
22575,   0.145344,   9.762367,  -0.032124,   0.232665,  20.763218,   0.106926,   0.214002,  -0.934149,  -0.332766, -58.500000, -796.500000, -187.500000,  -0.698827,  90.093152,  32.556588,   0.676963,   0.680484,   0.194219,   0.202175, 
22576,   0.155463,   9.775308,   0.014123,   0.268142,  21.173516,   0.145550,   0.213301,  -0.940213,  -0.324268, -58.500000, -798.000000, -184.500000,  -0.702602,  90.090016,  32.781990,   0.676572,   0.680084,   0.195528,   0.203532, 
22577,   0.088268,   9.808166,   0.039349,   0.137413,  21.933568,   0.080254,   0.212552,  -0.954697,  -0.344728, -58.500000, -804.000000, -190.500000,  -0.699351,  90.089192,  33.002308,   0.676188,   0.679694,   0.196852,   0.204815, 
22578,   0.109260,   9.835024,   0.097622,   0.161931,  22.578904,   0.073617,   0.212518,  -0.960310,  -0.364033, -58.500000, -807.000000, -196.500000,  -0.705770,  90.078176,  33.217414,   0.675857,   0.679271,   0.198070,   0.206141, 
22579,   0.097524,   9.809560,   0.117059,   0.120502,  23.309392,   0.065832,   0.206055,  -0.961665,  -0.335582, -61.500000, -805.500000, -187.500000,  -0.702865,  90.064960,  33.434102,   0.675553,   0.678816,   0.199349,   0.207425, 
22580,  -0.036645,   9.855542,   0.185074,   0.212746,  24.260526,   0.164974,   0.209328,  -0.953972,  -0.325677, -60.000000, -802.500000, -184.500000,  -0.696891,  90.040000,  33.672564,   0.675286,   0.678249,   0.200753,   0.208841, 
22581,  -0.001537,   9.779867,   0.198661,   0.176357,  25.120656,   0.191459,   0.213081,  -0.949448,  -0.348688, -58.500000, -802.500000, -192.000000,  -0.684096,  90.017008,  33.913056,   0.675004,   0.677666,   0.202208,   0.210223, 
22582,  -0.047626,   9.785338,   0.146583,   0.266259,  26.190490,   0.112823,   0.216183,  -0.942568,  -0.334245, -57.000000, -799.500000, -187.500000,  -0.662771,  90.001400,  34.157092,   0.674681,   0.677100,   0.203747,   0.211561, 
22583,  -0.042563,   9.830572,   0.138586,   0.251082,  27.262990,   0.122041,   0.215686,  -0.942206,  -0.310980, -57.000000, -798.000000, -180.000000,  -0.644127,  89.985608,  34.426316,   0.674308,   0.676490,   0.205417,   0.213063, 
22584,  -0.024892,   9.789356,   0.160329,   0.357324,  28.467992,   0.197805,   0.214252,  -0.959948,  -0.313290, -57.000000, -804.000000, -180.000000,  -0.629421,  89.968984,  34.714352,   0.673897,   0.675849,   0.207173,   0.214701, 
22585,   0.016164,   9.834881,   0.235552,   0.100993,  29.857406,   0.220633,   0.213552,  -0.966012,  -0.304792, -57.000000, -805.500000, -177.000000,  -0.614691,  89.949192,  35.014292,   0.673483,   0.675167,   0.208993,   0.216416, 
22586,  -0.031774,   9.833740,   0.142013,   0.363743,  30.851922,   0.179309,   0.213568,  -0.963206,  -0.295140, -57.000000, -804.000000, -174.000000,  -0.603428,  89.932608,  35.331016,   0.673000,   0.674467,   0.210892,   0.218240, 
22587,  -0.047362,   9.809961,   0.252241,   0.211079,  31.919920,   0.214009,   0.225861,  -0.955335,  -0.304933, -51.000000, -802.500000, -177.000000,  -0.590419,  89.910576,  35.663168,   0.672512,   0.673692,   0.212878,   0.220153, 
22588,  -0.000851,   9.780444,   0.133945,   0.504940,  32.977764,   0.201228,   0.216433,  -0.968367,  -0.314769, -55.500000, -807.000000, -180.000000,  -0.582354,  89.888104,  35.997632,   0.672013,   0.672920,   0.214847,   0.222109, 
22589,  -0.012010,   9.898516,   0.221286,   0.179661,  33.966352,   0.284832,   0.219331,  -0.967915,  -0.315093, -54.000000, -807.000000, -180.000000,  -0.569622,  89.872176,  36.327644,   0.671493,   0.672186,   0.216830,   0.224001, 
22590,  -0.018139,   9.828568,   0.032931,   0.437084,  34.810716,   0.259155,   0.221562,  -0.967915,  -0.287614, -52.500000, -805.500000, -171.000000,  -0.558765,  89.866672,  36.676132,   0.670866,   0.671474,   0.218927,   0.225990, 
22591,   0.073460,   9.848796,   0.077890,   0.262848,  35.424824,   0.242038,   0.219397,  -0.956689,  -0.276483, -54.000000, -801.000000, -168.000000,  -0.555436,  89.865816,  37.047216,   0.670134,   0.670742,   0.221115,   0.228141, 
22592,   0.179405,   9.816137,  -0.067703,   0.461446,  35.540160,   0.272383,   0.225177,  -0.958593,  -0.286783, -51.000000, -802.500000, -171.000000,  -0.570307,  89.868360,  37.425884,   0.669332,   0.670051,   0.223248,   0.230436, 
22593,   0.255273,   9.855234,   0.033806,   0.270354,  35.318140,   0.257631,   0.218697,  -0.962754,  -0.267985, -54.000000, -802.500000, -165.000000,  -0.589555,  89.870520,  37.805188,   0.668520,   0.669366,   0.225359,   0.232760, 
22594,   0.283333,   9.826773,   0.024554,   0.343137,  34.855180,   0.215396,   0.222328,  -0.950625,  -0.257502, -52.500000, -798.000000, -162.000000,  -0.614299,  89.868824,  38.199648,   0.667673,   0.668623,   0.227513,   0.235206, 
22595,   0.332601,   9.818960,  -0.013444,   0.260755,  34.339424,   0.214028,   0.213260,  -0.959221,  -0.266760, -57.000000, -801.000000, -165.000000,  -0.643527,  89.869936,  38.567856,   0.666841,   0.667948,   0.229490,   0.237516, 
22596,   0.299204,   9.758767,   0.015183,   0.418139,  33.761016,   0.249000,   0.206592,  -0.967003,  -0.253077, -60.000000, -802.500000, -160.500000,  -0.674750,  89.863216,  38.935404,   0.666051,   0.667234,   0.231435,   0.239849, 
22597,   0.271438,   9.764691,   0.067505,   0.577845,  33.413788,   0.261996,   0.217500,  -0.968455,  -0.236222, -54.000000, -802.500000, -154.500000,  -0.705575,  89.845440,  39.327228,   0.665274,   0.666407,   0.233501,   0.242343, 
22598,   0.335347,   9.860454,   0.229751,   0.335420,  33.200462,   0.185912,   0.216612,  -0.978141,  -0.232840, -54.000000, -805.500000, -153.000000,  -0.736468,  89.823256,  39.717580,   0.664499,   0.665535,   0.235540,   0.244829, 
22599,   0.207424,   9.829268,   0.118416,   0.119386,  33.067638,   0.207281,   0.211158,  -0.977415,  -0.241267, -57.000000, -805.500000, -156.000000,  -0.751908,  89.811936,  40.081172,   0.663748,   0.664747,   0.237535,   0.247047, 
22600,   0.095116,   9.783628,   0.119318,   0.352303,  33.182988,   0.255411,   0.209148,  -0.968181,  -0.244326, -58.500000, -802.500000, -157.500000,  -0.754111,  89.799072,  40.433176,   0.663059,   0.663948,   0.239536,   0.249126, 
22601,   0.097752,   9.787848,   0.069767,   0.244148,  33.530014,   0.225573,   0.202138,  -0.977592,  -0.221567, -61.500000, -804.000000, -150.000000,  -0.749619,  89.791824,  40.795556,   0.662328,   0.663144,   0.241648,   0.251214, 
22602,   0.063800,   9.846448,   0.091390,   0.338021,  33.467442,   0.208090,   0.196935,  -1.002665,  -0.210519, -63.000000, -811.500000, -145.500000,  -0.748269,  89.784152,  41.163572,   0.661556,   0.662308,   0.243763,   0.253345, 
22603,   0.154453,   9.832333,   0.175269,   0.139923,  33.423886,   0.300866,   0.204319,  -0.986011,  -0.223047, -60.000000, -807.000000, -150.000000,  -0.750230,  89.774032,  41.525508,   0.660803,   0.661478,   0.245819,   0.255465, 
22604,   0.156469,   9.767556,   0.048945,   0.080266,  33.468464,   0.292298,   0.207951,  -0.973882,  -0.212563, -58.500000, -802.500000, -147.000000,  -0.751802,  89.774960,  41.895708,   0.659970,   0.660693,   0.247949,   0.257607, 
22605,   0.249762,   9.861437,   0.204917,   0.333156,  32.978280,   0.225454,   0.206925,  -0.978769,  -0.185338, -58.500000, -802.500000, -138.000000,  -0.771091,  89.752016,  42.299728,   0.659150,   0.659729,   0.250115,   0.260094, 
22606,   0.265759,   9.883956,   0.136593,   0.037486,  32.596222,   0.180597,   0.212909,  -0.974245,  -0.180871, -55.500000, -801.000000, -136.500000,  -0.788639,  89.742512,  42.703364,   0.658236,   0.658820,   0.252311,   0.262533, 
22607,   0.203737,   9.785022,   0.087079,   0.349406,  32.008396,   0.182292,   0.219234,  -0.968092,  -0.185479, -52.500000, -799.500000, -138.000000,  -0.807212,  89.727088,  43.104260,   0.657360,   0.657887,   0.254472,   0.264974, 
22608,   0.350016,   9.833391,   0.132465,   0.138206,  31.502130,   0.240595,   0.209823,  -0.978318,  -0.185662, -57.000000, -802.500000, -138.000000,  -0.836990,  89.710256,  43.490532,   0.656498,   0.657003,   0.256480,   0.267399, 
22609,   0.335062,   9.799265,   0.085707,   0.185986,  31.110224,   0.164535,   0.206208,  -0.987640,  -0.186493, -58.500000, -805.500000, -138.000000,  -0.865581,  89.701088,  43.863040,   0.655606,   0.656174,   0.258427,   0.269714, 
22610,   0.261717,   9.823050,   0.166620,   0.211500,  31.092596,   0.208017,   0.210181,  -0.973883,  -0.185085, -57.000000, -801.000000, -138.000000,  -0.889130,  89.686088,  44.236984,   0.654748,   0.655291,   0.260394,   0.272017, 
22611,   0.275147,   9.823689,   0.111245,   0.229667,  31.190328,   0.192548,   0.209856,  -0.972705,  -0.166357, -57.000000, -799.500000, -132.000000,  -0.912740,  89.672976,  44.627816,   0.653838,   0.654381,   0.262462,   0.274414, 
22612,   0.247336,   9.804831,   0.144664,   0.199249,  31.590780,   0.208030,   0.209139,  -0.981576,  -0.167512, -57.000000, -802.500000, -132.000000,  -0.925929,  89.662392,  45.013444,   0.652949,   0.653474,   0.264564,   0.276716, 
22613,   0.147870,   9.796648,  -0.005984,   0.401180,  32.053344,   0.296800,   0.209669,  -0.976326,  -0.171472, -57.000000, -801.000000, -133.500000,  -0.933278,  89.656888,  45.394024,   0.652030,   0.652568,   0.266674,   0.278933, 
22614,   0.139837,   9.780956,   0.152502,   0.306300,  32.869678,   0.237733,   0.197938,  -0.973333,  -0.146334, -63.000000, -798.000000, -126.000000,  -0.942952,  89.641648,  45.795996,   0.651108,   0.651562,   0.268868,   0.281308, 
22615,   0.157938,   9.810454,   0.174690,   0.516539,  33.298454,   0.294083,   0.197938,  -0.973333,  -0.146334, -63.000000, -798.000000, -126.000000,  -0.954368,  89.617368,  46.205460,   0.650215,   0.650492,   0.271071,   0.283757, 
22616,   0.112371,   9.799514,   0.120835,   0.310328,  34.047796,   0.227765,   0.203376,  -0.976866,  -0.147559, -60.000000, -799.500000, -126.000000,  -0.955404,  89.611336,  46.614336,   0.649229,   0.649489,   0.273369,   0.286096, 
22617,   0.191240,   9.778033,   0.058654,   0.545778,  34.507860,   0.228863,   0.202488,  -0.986551,  -0.144177, -60.000000, -802.500000, -124.500000,  -0.960740,  89.599992,  47.032296,   0.648226,   0.648431,   0.275675,   0.288516, 
22618,   0.129053,   9.794273,   0.076365,   0.258653,  34.996752,   0.220848,   0.209017,  -0.973971,  -0.134017, -57.000000, -798.000000, -121.500000,  -0.958011,  89.605296,  47.462112,   0.647119,   0.647418,   0.278136,   0.290919, 
22619,   0.128153,   9.760531,   0.074696,   0.339213,  35.344984,   0.319787,   0.200870,  -0.967269,  -0.127353, -61.500000, -795.000000, -120.000000,  -0.957196,  89.601120,  47.896024,   0.646045,   0.646341,   0.280582,   0.293375, 
22620,   0.197060,   9.824551,   0.031253,   0.101275,  36.072744,   0.269175,   0.193827,  -0.982293,  -0.123900, -64.500000, -799.500000, -118.500000,  -0.958204,  89.611008,  48.325676,   0.644874,   0.645334,   0.283019,   0.295773, 
22621,   0.057195,   9.783965,   0.020478,   0.558127,  36.634124,   0.275479,   0.209814,  -0.991713,  -0.108849, -55.500000, -802.500000, -112.500000,  -0.950773,  89.603280,  48.795812,   0.643719,   0.644107,   0.285687,   0.298395, 
22622,   0.077674,   9.853608,   0.200875,   0.177117,  37.575156,   0.312175,   0.218850,  -0.988730,  -0.118896, -51.000000, -802.500000, -115.500000,  -0.948879,  89.594448,  49.269660,   0.642542,   0.642874,   0.288339,   0.301069, 
22623,   0.031115,   9.838187,   0.155468,   0.309649,  38.422556,   0.243595,   0.209284,  -0.996963,  -0.104889, -55.500000, -804.000000, -111.000000,  -0.937335,  89.584192,  49.754968,   0.641339,   0.641550,   0.291093,   0.303745, 
22624,   0.084968,   9.817868,   0.196184,   0.159222,  39.623072,   0.294211,   0.196634,  -1.009269,  -0.095673, -61.500000, -807.000000, -108.000000,  -0.923339,  89.576200,  50.244832,   0.640118,   0.640221,   0.293891,   0.306427, 
22625,  -0.107958,   9.738495,   0.046364,   0.572892,  40.744156,   0.331257,   0.201495,  -0.985825,  -0.097647, -60.000000, -799.500000, -109.500000,  -0.893120,  89.565528,  50.740844,   0.638932,   0.638809,   0.296802,   0.309058, 
22626,  -0.101094,   9.889313,   0.314452,   0.387323,  41.860632,   0.359686,   0.199518,  -0.970979,  -0.081400, -61.500000, -793.500000, -105.000000,  -0.872108,  89.535960,  51.269896,   0.637710,   0.637204,   0.299782,   0.311962, 
22627,  -0.075781,   9.826988,   0.056107,   0.350325,  43.422260,   0.332872,   0.208212,  -0.969624,  -0.082372, -57.000000, -793.500000, -105.000000,  -0.840199,  89.536336,  51.804868,   0.636337,   0.635719,   0.302935,   0.314762, 
22628,   0.094053,   9.847943,   0.103420,   0.355189,  44.770044,   0.256304,   0.201528,  -0.980212,  -0.078342, -60.000000, -796.500000, -103.500000,  -0.833948,  89.533576,  52.357336,   0.634843,   0.634217,   0.306023,   0.317798, 
22629,   0.210037,   9.799533,  -0.102896,   0.380271,  45.583852,   0.336794,   0.185637,  -0.994599,  -0.059727, -67.500000, -799.500000, -97.500000,  -0.839107,  89.554656,  52.919872,   0.633142,   0.632836,   0.309162,   0.320881, 
22630,   0.322744,   9.824776,  -0.082170,   0.541840,  45.916904,   0.402511,   0.187321,  -1.002655,  -0.037940, -66.000000, -801.000000, -90.000000,  -0.856088,  89.565728,  53.518960,   0.631355,   0.631327,   0.312407,   0.324253, 
22631,   0.287577,   9.864176,  -0.079257,   0.530370,  46.001644,   0.345870,   0.184782,  -0.998671,  -0.037039, -67.500000, -799.500000, -90.000000,  -0.877934,  89.580528,  54.115332,   0.629507,   0.629825,   0.315606,   0.327609, 
22632,   0.254311,   9.757860,  -0.104758,   0.542177,  45.948452,   0.387603,   0.187851,  -0.997405,  -0.041900, -66.000000, -799.500000, -91.500000,  -0.897787,  89.592800,  54.706684,   0.627692,   0.628319,   0.318781,   0.330931, 
22633,   0.258464,   9.766855,  -0.114950,   0.511662,  45.850576,   0.369089,   0.185311,  -0.993421,  -0.040999, -67.500000, -798.000000, -91.500000,  -0.914595,  89.610544,  55.289928,   0.625848,   0.626828,   0.321932,   0.334160, 
22634,   0.367938,   9.778956,  -0.116487,   0.628111,  45.379040,   0.409377,   0.173736,  -0.992421,  -0.030050, -73.500000, -796.500000, -88.500000,  -0.942265,  89.625784,  55.874200,   0.623974,   0.625341,   0.325017,   0.337454, 
22635,   0.365560,   9.849744,  -0.113506,   0.288075,  44.943552,   0.333106,   0.187167,  -1.000663,  -0.023751, -66.000000, -799.500000, -85.500000,  -0.958911,  89.653096,  56.463924,   0.622034,   0.623860,   0.328223,   0.340674, 
22636,   0.358534,   9.872068,  -0.170526,   0.319956,  44.287584,   0.216400,   0.186996,  -1.001478,  -0.019213, -66.000000, -799.500000, -84.000000,  -0.979776,  89.685600,  57.050152,   0.620040,   0.622405,   0.331392,   0.343867, 
22637,   0.282656,   9.839634,  -0.216229,   0.122347,  43.814168,   0.328620,   0.180841,  -1.006817,  -0.019142, -69.000000, -801.000000, -84.000000,  -0.988221,  89.727800,  57.615836,   0.618092,   0.621025,   0.334548,   0.346852, 
22638,   0.250133,   9.742116,  -0.385981,   0.422676,  43.125864,   0.390290,   0.193914,  -1.019494,  -0.013420, -61.500000, -805.500000, -81.000000,  -0.999694,  89.772648,  58.183888,   0.616079,   0.619626,   0.337692,   0.349837, 
22639,   0.227146,   9.805754,  -0.307551,   0.512103,  42.416780,   0.351602,   0.162444,  -1.011606,   0.019678, -78.000000, -799.500000, -72.000000,  -1.012364,  89.806816,  58.757924,   0.614100,   0.618151,   0.340830,   0.352887, 
22640,   0.334416,   9.894690,  -0.064723,   0.109969,  41.687988,   0.299412,   0.159033,  -1.014501,   0.033614, -79.500000, -799.500000, -67.500000,  -1.025497,  89.836544,  59.341556,   0.612095,   0.616607,   0.343997,   0.355991, 
22641,   0.274081,   9.831334,  -0.183839,   0.350473,  40.806216,   0.190662,   0.167027,  -1.019211,   0.041140, -75.000000, -801.000000, -64.500000,  -1.039177,  89.862248,  59.932272,   0.610069,   0.615002,   0.347176,   0.359135, 
22642,   0.282578,   9.815506,   0.046967,   0.161878,  39.979624,   0.243523,   0.172105,  -1.027179,   0.039337, -72.000000, -804.000000, -64.500000,  -1.050097,  89.867952,  60.527148,   0.608140,   0.613264,   0.350329,   0.362343, 
22643,   0.157003,   9.791031,  -0.182379,   0.539924,  39.133748,   0.258768,   0.175158,  -1.028719,   0.024823, -70.500000, -805.500000, -69.000000,  -1.052889,  89.880768,  61.099692,   0.606236,   0.611573,   0.353409,   0.365347, 
22644,   0.183566,   9.822084,   0.220922,   0.214669,  38.387712,   0.346365,   0.166651,  -1.026453,   0.030910, -75.000000, -804.000000, -67.500000,  -1.055939,  89.866536,  61.664516,   0.604499,   0.609764,   0.356360,   0.368394, 
22645,   0.046201,   9.769437,  -0.086432,   0.501599,  37.861732,   0.253152,   0.160685,  -1.028171,   0.036095, -78.000000, -804.000000, -66.000000,  -1.048302,  89.869888,  62.214796,   0.602727,   0.608036,   0.359334,   0.371241, 
22646,   0.209630,   9.902294,   0.248318,   0.146815,  37.595904,   0.296738,   0.169395,  -1.024010,   0.044776, -73.500000, -802.500000, -63.000000,  -1.052949,  89.854152,  62.778600,   0.600959,   0.606191,   0.362244,   0.374274, 
22647,   0.090187,   9.733137,  -0.046588,   0.367987,  37.372684,   0.234288,   0.172138,  -1.021566,   0.058642, -72.000000, -801.000000, -58.500000,  -1.046138,  89.854000,  63.348880,   0.599120,   0.604366,   0.365297,   0.377230, 
22648,   0.257122,   9.848171,   0.013750,   0.039594,  37.178184,   0.322947,   0.166359,  -1.019662,   0.068942, -75.000000, -799.500000, -55.500000,  -1.052288,  89.857720,  63.930624,   0.597149,   0.602534,   0.368335,   0.380281, 
22649,   0.177391,   9.755321,  -0.090185,   0.457436,  36.883760,   0.339725,   0.166888,  -1.014412,   0.064982, -75.000000, -798.000000, -57.000000,  -1.060004,  89.859080,  64.511840,   0.595186,   0.600697,   0.371354,   0.383345, 
22650,   0.348791,   9.843664,   0.013840,  -0.065673,  36.937784,   0.230487,   0.163649,  -1.016493,   0.074381, -76.500000, -798.000000, -54.000000,  -1.073050,  89.870968,  65.088652,   0.593139,   0.598920,   0.374343,   0.386362, 
22651,   0.142225,   9.711322,  -0.186084,   0.372295,  36.945868,   0.270267,   0.163306,  -1.018122,   0.083456, -76.500000, -798.000000, -51.000000,  -1.072440,  89.888616,  65.669504,   0.591083,   0.597105,   0.377437,   0.389303, 
22652,   0.247140,   9.822945,  -0.063062,   0.222259,  37.418072,   0.346627,   0.166033,  -1.018485,   0.087670, -75.000000, -798.000000, -49.500000,  -1.078168,  89.897480,  66.265260,   0.588991,   0.595204,   0.380540,   0.392373, 
22653,   0.205587,   9.857225,   0.023405,   0.395238,  37.523864,   0.237274,   0.159691,  -1.027444,   0.082625, -78.000000, -801.000000, -51.000000,  -1.086629,  89.896976,  66.864204,   0.586899,   0.593226,   0.383596,   0.395487, 
22654,   0.193225,   9.814327,  -0.078224,   0.064275,  37.924992,   0.249458,   0.153195,  -1.034412,   0.091771, -81.000000, -802.500000, -48.000000,  -1.081171,  89.921200,  67.451072,   0.584770,   0.591369,   0.386748,   0.398385, 
22655,   0.225571,   9.683961,   0.045272,   0.476276,  37.906276,   0.253664,   0.152682,  -1.036855,   0.105383, -81.000000, -802.500000, -43.500000,  -1.091398,  89.907144,  68.069640,   0.582638,   0.589227,   0.389827,   0.401629, 
22656,   0.067168,   9.817365,  -0.164735,   0.340624,  38.093708,   0.316420,   0.144876,  -1.028525,   0.102973, -85.500000, -799.500000, -45.000000,  -1.079355,  89.928784,  68.674624,   0.580446,   0.587234,   0.393073,   0.404568, 
22657,   0.181581,   9.853517,   0.163682,   0.419484,  38.244508,   0.267751,   0.148866,  -1.011960,   0.114034, -84.000000, -793.500000, -42.000000,  -1.084368,  89.915328,  69.300000,   0.578277,   0.585026,   0.396197,   0.407800, 
22658,  -0.033104,   9.805896,  -0.134802,   0.456054,  38.475916,   0.307077,   0.155784,  -1.029976,   0.119827, -79.500000, -799.500000, -39.000000,  -1.065420,  89.930056,  69.926048,   0.576034,   0.582861,   0.399537,   0.410806, 
22659,   0.061030,   9.849247,   0.179896,   0.426001,  38.911904,   0.314492,   0.148195,  -1.053057,   0.117587, -82.500000, -807.000000, -39.000000,  -1.054332,  89.912104,  70.569744,   0.573850,   0.580480,   0.402797,   0.414044, 
22660,  -0.110858,   9.705783,  -0.151384,   0.697107,  39.409496,   0.326319,   0.154725,  -1.040477,   0.127747, -79.500000, -802.500000, -36.000000,  -1.028801,  89.920672,  71.209424,   0.571575,   0.578171,   0.406188,   0.417081, 
22661,   0.097740,   9.955634,   0.407455,   0.454494,  40.041112,   0.221730,   0.157656,  -1.034412,   0.146728, -78.000000, -799.500000, -30.000000,  -1.020025,  89.884104,  71.894576,   0.569292,   0.575523,   0.409551,   0.420581, 
22662,  -0.071680,   9.736381,  -0.166416,   0.628647,  40.299120,   0.306559,   0.139738,  -1.042371,   0.152632, -87.000000, -801.000000, -28.500000,  -0.994178,  89.892992,  72.578688,   0.566816,   0.573013,   0.413138,   0.423809, 
22663,   0.173108,   9.796401,   0.389023,   0.037019,  40.389412,   0.301645,   0.127771,  -1.051419,   0.143698, -93.000000, -804.000000, -31.500000,  -0.992566,  89.858256,  73.273040,   0.564422,   0.570327,   0.416485,   0.427358, 
22664,   0.108317,   9.761431,  -0.047614,   0.614089,  40.566088,   0.319844,   0.139380,  -1.046806,   0.152054, -87.000000, -802.500000, -28.500000,  -0.991040,  89.844656,  73.959128,   0.561919,   0.567745,   0.419844,   0.430767, 
22665,   0.197968,   9.853874,   0.254100,   0.272504,  40.744340,   0.232219,   0.132900,  -1.050968,   0.170852, -90.000000, -802.500000, -22.500000,  -0.994961,  89.820656,  74.670440,   0.559344,   0.565031,   0.423254,   0.434359, 
22666,   0.176946,   9.857733,   0.132372,   0.481634,  41.064496,   0.309834,   0.126745,  -1.056306,   0.170923, -93.000000, -804.000000, -22.500000,  -1.001941,  89.796040,  75.238512,   0.557271,   0.562825,   0.425916,   0.437246, 
22667,   0.235820,   9.803969,   0.279660,   0.037701,  41.244792,   0.383573,   0.136840,  -1.042822,   0.152956, -88.500000, -801.000000, -28.500000,  -1.006865,  89.775432,  75.797848,   0.555218,   0.560664,   0.428559,   0.440067, 
22668,   0.248836,   9.712713,   0.103891,   0.681414,  41.295352,   0.316137,   0.136327,  -1.045266,   0.166569, -88.500000, -801.000000, -24.000000,  -1.020056,  89.747976,  76.513224,   0.552536,   0.557889,   0.431875,   0.443686, 
22669,   0.305879,   9.788602,   0.198860,   0.379636,  41.085832,   0.376779,   0.120265,  -1.060467,   0.189721, -96.000000, -804.000000, -16.500000,  -1.032425,  89.725896,  77.077912,   0.550406,   0.555698,   0.434476,   0.446549, 
22670,   0.358352,   9.835440,   0.284201,   0.263860,  40.744536,   0.266939,   0.122992,  -1.060830,   0.193934, -94.500000, -804.000000, -15.000000,  -1.053815,  89.693872,  77.485952,   0.548886,   0.554079,   0.436224,   0.448732, 
22671,   0.339074,   9.798199,   0.050130,   0.273913,  40.413496,   0.286310,   0.129163,  -1.052685,   0.203516, -91.500000, -801.000000, -12.000000,  -1.072851,  89.687632,  77.889336,   0.547253,   0.552577,   0.438050,   0.450770, 
22672,   0.221206,   9.752558,   0.028171,   0.449211,  40.388440,   0.297466,   0.123726,  -1.049153,   0.204742, -94.500000, -799.500000, -12.000000,  -1.085732,  89.678504,  78.291408,   0.545662,   0.551044,   0.439889,   0.452784, 
22673,   0.331167,   9.758731,   0.106175,   0.252860,  40.611560,   0.351485,   0.114861,  -1.051321,   0.210251, -99.000000, -799.500000, -10.500000,  -1.100148,  89.671856,  78.694896,   0.544047,   0.549523,   0.441737,   0.454803, 
22674,   0.213958,   9.833010,  -0.000745,   0.487897,  40.824148,   0.279524,   0.108723,  -1.053854,   0.219974, -102.000000, -799.500000,  -7.500000,  -1.111174,  89.672096,  79.100104,   0.542385,   0.547996,   0.443620,   0.456770, 
22675,   0.324354,   9.872018,   0.214267,   0.348011,  40.958900,   0.281345,   0.099499,  -1.060458,   0.224906, -106.500000, -801.000000,  -6.000000,  -1.128801,  89.654408,  79.507592,   0.540769,   0.546398,   0.445409,   0.458845, 
22676,   0.244114,   9.809720,   0.064971,   0.352565,  41.038100,   0.307944,   0.111450,  -1.054217,   0.224188, -100.500000, -799.500000,  -6.000000,  -1.139912,  89.651968,  79.915800,   0.539102,   0.544845,   0.447293,   0.460834, 
22677,   0.293681,   9.704814,   0.087499,   0.372066,  41.077504,   0.291453,   0.128667,  -1.052322,   0.226781, -91.500000, -799.500000,  -4.500000,  -1.150498,  89.639952,  80.324816,   0.537470,   0.543231,   0.449137,   0.462853, 
22678,   0.307823,   9.805747,   0.155148,   0.362952,  41.234192,   0.389868,   0.130848,  -1.060742,   0.225302, -90.000000, -802.500000,  -4.500000,  -1.163288,  89.618680,  80.735032,   0.535853,   0.541566,   0.450927,   0.464912, 
22679,   0.223659,   9.795897,   0.127432,   0.479927,  41.180100,   0.302200,   0.110562,  -1.063902,   0.227570, -100.500000, -802.500000,  -4.500000,  -1.176493,  89.599784,  81.145448,   0.534221,   0.539913,   0.452725,   0.466965, 
22680,   0.293953,   9.872395,   0.253648,   0.003769,  41.367960,   0.292556,   0.104799,  -1.059192,   0.247523, -103.500000, -799.500000,   1.500000,  -1.185582,  89.581440,  81.556656,   0.532600,   0.538244,   0.454549,   0.469001, 
22681,   0.263793,   9.721383,  -0.001892,   0.685783,  41.164056,   0.350598,   0.107526,  -1.059555,   0.251737, -102.000000, -799.500000,   3.000000,  -1.204158,  89.561896,  81.967656,   0.530922,   0.536587,   0.456301,   0.471065, 
22682,   0.267032,   9.814487,   0.311244,   0.259251,  41.172288,   0.413735,   0.107680,  -1.061547,   0.237547, -102.000000, -801.000000,  -1.500000,  -1.208440,  89.537160,  82.377840,   0.529328,   0.534851,   0.458096,   0.473079, 
22683,   0.315752,   9.853150,   0.209994,   0.522582,  40.863764,   0.312521,   0.098628,  -1.067337,   0.237941, -106.500000, -802.500000,  -1.500000,  -1.230045,  89.513536,  82.786376,   0.527665,   0.533199,   0.459805,   0.475162, 
22684,   0.223470,   9.866295,   0.192921,   0.236012,  40.549360,   0.358897,   0.091960,  -1.075119,   0.251624, -109.500000, -804.000000,   3.000000,  -1.232251,  89.500728,  83.191568,   0.526031,   0.531519,   0.461623,   0.477086, 
22685,   0.268168,   9.732195,   0.106737,   0.624052,  40.309792,   0.265117,   0.085839,  -1.074845,   0.271000, -112.500000, -802.500000,   9.000000,  -1.245840,  89.479000,  83.594040,   0.524392,   0.529846,   0.463329,   0.479076, 
22686,   0.216866,   9.804403,   0.122600,   0.389527,  40.442260,   0.358685,   0.077879,  -1.064521,   0.282780, -117.000000, -798.000000,  12.000000,  -1.245279,  89.469120,  83.995800,   0.522759,   0.528173,   0.465147,   0.480951, 
22687,   0.431784,   9.835641,   0.333601,   0.451068,  40.579280,   0.314415,   0.078066,  -1.060900,   0.287895, -117.000000, -796.500000,  13.500000,  -1.264351,  89.435640,  84.399464,   0.521143,   0.526464,   0.466781,   0.483018, 
22688,   0.271340,   9.840714,   0.179687,   0.314799,  40.691224,   0.301365,   0.080060,  -1.072941,   0.281301, -115.500000, -801.000000,  12.000000,  -1.268132,  89.425488,  84.803664,   0.519459,   0.524777,   0.468568,   0.484905, 
22689,   0.366656,   9.809116,   0.333622,   0.448459,  41.077132,   0.253608,   0.075135,  -1.066965,   0.268913, -118.500000, -799.500000,   7.500000,  -1.286487,  89.387880,  85.210944,   0.517826,   0.523013,   0.470185,   0.486983, 
22690,   0.290185,   9.743541,   0.277728,   0.442106,  41.429916,   0.429030,   0.074980,  -1.064973,   0.283103, -118.500000, -798.000000,  12.000000,  -1.297725,  89.353552,  85.622184,   0.516189,   0.521220,   0.471866,   0.489035, 
22691,   0.354437,   9.801090,   0.438443,   0.249257,  41.797836,   0.387993,   0.085155,  -1.078103,   0.289150, -112.500000, -802.500000,  15.000000,  -1.310229,  89.309672,  86.037624,   0.514557,   0.519360,   0.473505,   0.491139, 
22692,   0.253424,   9.822870,   0.281050,   0.407524,  42.256744,   0.321498,   0.069964,  -1.086425,   0.299267, -120.000000, -804.000000,  18.000000,  -1.310915,  89.279568,  86.457016,   0.512885,   0.517488,   0.475267,   0.493143, 
22693,   0.230874,   9.784475,   0.321577,   0.566972,  42.763828,   0.401887,   0.069030,  -1.063884,   0.297941, -121.500000, -796.500000,  16.500000,  -1.314452,  89.235520,  86.881360,   0.511242,   0.515546,   0.476977,   0.495241, 
22694,   0.170623,   9.911275,   0.271050,   0.229350,  43.360696,   0.417475,   0.083707,  -1.058005,   0.301436, -114.000000, -795.000000,  18.000000,  -1.308086,  89.219464,  87.310632,   0.509486,   0.513660,   0.478867,   0.497195, 
22695,   0.296361,   9.700549,   0.185089,   0.517498,  43.840324,   0.403062,   0.088273,  -1.068417,   0.313246, -111.000000, -798.000000,  22.500000,  -1.317575,  89.200968,  87.745008,   0.507633,   0.511794,   0.480681,   0.499236, 
22696,   0.196606,   9.842862,   0.141361,   0.548109,  44.329468,   0.394683,   0.076185,  -1.069860,   0.337807, -117.000000, -796.500000,  30.000000,  -1.312412,  89.187456,  88.184344,   0.505799,   0.509867,   0.482606,   0.501214, 
22697,   0.288379,   9.837552,   0.253582,   0.303148,  44.748328,   0.434238,   0.064063,  -1.076916,   0.343063, -123.000000, -798.000000,  31.500000,  -1.320845,  89.176712,  88.628408,   0.503871,   0.507989,   0.484499,   0.503260, 
22698,   0.259803,   9.813575,   0.181943,   0.419656,  45.228036,   0.357015,   0.063346,  -1.085787,   0.341908, -123.000000, -801.000000,  31.500000,  -1.324175,  89.168832,  89.076808,   0.501911,   0.506062,   0.486426,   0.505268, 
22699,   0.285946,   9.754996,   0.164393,   0.471896,  45.308204,   0.402530,   0.055198,  -1.079085,   0.348572, -127.500000, -798.000000,  33.000000,  -1.326920,  89.160216,  89.527392,   0.499947,   0.504119,   0.488363,   0.507286, 
22700,   0.144900,   9.803240,   0.269604,   0.730427,  45.405620,   0.433218,   0.045087,  -1.095375,   0.356887, -132.000000, -802.500000,  36.000000,  -1.317825,  89.125048,  89.980216,   0.498140,   0.502001,   0.490243,   0.509377, 
22701,   0.243253,   9.916081,   0.387267,   0.182085,  45.531408,   0.429411,   0.047985,  -1.094923,   0.356563, -130.500000, -802.500000,  36.000000,  -1.316538,  89.100672,  90.433816,   0.496224,   0.499938,   0.492115,   0.511437, 
22702,   0.349245,   9.832144,   0.170229,   0.398336,  45.672732,   0.329870,   0.051429,  -1.086416,   0.361931, -129.000000, -799.500000,  37.500000,  -1.329072,  89.089224,  90.888232,   0.494186,   0.497988,   0.493987,   0.513503, 
22703,   0.364559,   9.760367,   0.283606,   0.424841,  45.743700,   0.305314,   0.036614,  -1.087495,   0.382279, -136.500000, -798.000000,  43.500000,  -1.339557,  89.067920,  91.344064,   0.492193,   0.495981,   0.495830,   0.515609, 
22704,   0.462297,   9.668598,   0.163288,   0.613819,  45.779756,   0.482095,   0.034074,  -1.083512,   0.383180, -138.000000, -796.500000,  43.500000,  -1.360467,  89.045920,  91.800392,   0.490133,   0.493996,   0.497605,   0.517743, 
22705,   0.289075,   9.793115,   0.316115,   0.554629,  45.868720,   0.456915,   0.045837,  -1.080891,   0.377347, -132.000000, -796.500000,  42.000000,  -1.364138,  89.022552,  92.256528,   0.488151,   0.491927,   0.499444,   0.519806, 
22706,   0.337389,   9.872677,   0.325382,   0.458374,  45.681976,   0.426427,   0.038452,  -1.097544,   0.389875, -135.000000, -801.000000,  46.500000,  -1.379151,  88.998568,  92.713224,   0.486118,   0.489905,   0.501233,   0.521922, 
22707,   0.290497,   9.883418,   0.371662,   0.061660,  45.495644,   0.340420,   0.038281,  -1.098359,   0.394413, -135.000000, -801.000000,  48.000000,  -1.385046,  88.982168,  93.167768,   0.484083,   0.487865,   0.503068,   0.523938, 
22708,   0.397754,   9.733797,   0.198851,   0.572307,  45.022768,   0.294129,   0.032081,  -1.071471,   0.389774, -139.500000, -792.000000,  45.000000,  -1.400141,  88.961776,  93.619392,   0.482031,   0.485859,   0.504827,   0.525993, 
22709,   0.241571,   9.763419,   0.180593,   0.355634,  44.846072,   0.436553,   0.029182,  -1.071922,   0.390099, -141.000000, -792.000000,  45.000000,  -1.396465,  88.959944,  94.066944,   0.480003,   0.483865,   0.506733,   0.527870, 
22710,   0.228246,   9.742778,   0.188151,   0.670900,  44.596268,   0.435588,   0.024679,  -1.090930,   0.392650, -142.500000, -798.000000,  46.500000,  -1.396413,  88.942888,  94.512696,   0.478015,   0.481817,   0.508531,   0.529806, 
22711,   0.032143,   9.936244,   0.173248,   0.172691,  44.579548,   0.421099,   0.019275,  -1.081785,   0.413180, -145.500000, -793.500000,  52.500000,  -1.378802,  88.949248,  94.956768,   0.476009,   0.479785,   0.510495,   0.531551, 
22712,   0.207977,   9.816866,   0.114280,   0.457056,  44.676684,   0.408552,   0.013495,  -1.079882,   0.423481, -148.500000, -792.000000,  55.500000,  -1.373385,  88.948544,  95.401304,   0.473975,   0.477778,   0.512376,   0.533379, 
22713,   0.033912,   9.617566,  -0.059480,   0.554027,  44.934548,   0.431608,   0.006436,  -1.097712,   0.417282, -151.500000, -798.000000,  54.000000,  -1.351342,  88.970264,  95.847224,   0.471906,   0.475768,   0.514425,   0.535032, 
22714,   0.209828,   9.814520,   0.099538,   0.651522,  45.236628,   0.403237,   0.002121,  -1.113099,   0.424948, -153.000000, -802.500000,  57.000000,  -1.339098,  88.973272,  96.296112,   0.469846,   0.473701,   0.516346,   0.536808, 
22715,   0.166451,   9.960750,   0.050331,   0.556390,  45.156420,   0.331140,   0.002855,  -1.101421,   0.435755, -153.000000, -798.000000,  60.000000,  -1.335920,  88.989784,  96.745808,   0.467685,   0.471727,   0.518295,   0.538564, 
22716,   0.213895,   9.745797,   0.184506,   0.159083,  44.944420,   0.444838,   0.009555,  -1.088027,   0.441378, -150.000000, -793.500000,  61.500000,  -1.330829,  88.997320,  97.194472,   0.465567,   0.469703,   0.520197,   0.540339, 
22717,   0.235047,   9.850663,  -0.005887,   0.518684,  44.827696,   0.394508,  -0.005122,  -1.093905,   0.437882, -157.500000, -795.000000,  60.000000,  -1.328225,  89.007272,  97.641488,   0.463422,   0.467693,   0.522077,   0.542089, 
22718,   0.258017,   9.723961,   0.073278,   0.369289,  44.499388,   0.491465,  -0.008924,  -1.106848,   0.431936, -159.000000, -799.500000,  58.500000,  -1.325278,  89.013696,  98.086152,   0.461305,   0.465677,   0.523933,   0.543845, 
22719,   0.246475,   9.818284,   0.220208,   0.342269,  44.356672,   0.401602,  -0.015763,  -1.115445,   0.450157, -162.000000, -801.000000,  64.500000,  -1.321995,  89.008632,  98.529016,   0.459240,   0.463618,   0.525723,   0.545639, 
22720,   0.230101,   9.839619,   0.046198,   0.260402,  44.462320,   0.342623,  -0.022447,  -1.126033,   0.454188, -165.000000, -804.000000,  66.000000,  -1.320480,  89.028288,  98.970272,   0.457057,   0.461655,   0.527597,   0.547299, 
22721,   0.316544,   9.887813,   0.176515,   0.411577,  44.409624,   0.351089,  -0.014858,  -1.102953,   0.456427, -162.000000, -796.500000,  66.000000,  -1.324949,  89.022424,  99.412240,   0.454946,   0.459616,   0.529329,   0.549104, 
22722,   0.254631,   9.722425,   0.023744,   0.548468,  44.272232,   0.412043,  -0.020108,  -1.095800,   0.462767, -165.000000, -793.500000,  67.500000,  -1.324600,  89.027728,  99.853528,   0.452816,   0.457600,   0.531130,   0.550834, 
22723,   0.234155,   9.804041,   0.279713,   0.391804,  44.151848,   0.381103,  -0.025312,  -1.120872,   0.473817, -166.500000, -801.000000,  72.000000,  -1.323568,  89.016384, 100.294176,   0.450737,   0.455498,   0.532827,   0.552611, 
22724,   0.131048,   9.806716,  -0.121381,   0.667985,  44.011120,   0.431929,  -0.025295,  -1.118066,   0.483469, -166.500000, -799.500000,  75.000000,  -1.319169,  89.034816, 100.732664,   0.448566,   0.453506,   0.534671,   0.554228, 
22725,   0.237759,   9.771600,   0.239586,   0.258284,  43.699180,   0.519540,  -0.034348,  -1.123856,   0.483864, -171.000000, -801.000000,  75.000000,  -1.313576,  89.034384, 101.169192,   0.446486,   0.451444,   0.536423,   0.555921, 
22726,   0.058606,   9.780805,  -0.153414,   0.439019,  43.228432,   0.353613,  -0.045051,  -1.115976,   0.481777, -177.000000, -798.000000,  73.500000,  -1.304980,  89.062624, 101.600328,   0.444317,   0.449486,   0.538283,   0.557425, 
22727,   0.156800,   9.842245,  -0.075526,   0.354285,  42.978176,   0.472976,  -0.047575,  -1.109186,   0.492331, -178.500000, -795.000000,  76.500000,  -1.289586,  89.094448, 102.028656,   0.442177,   0.447517,   0.540173,   0.558871, 
22728,   0.105978,   9.795272,  -0.127346,   0.442666,  42.833296,   0.400784,  -0.051361,  -1.119322,   0.496037, -180.000000, -798.000000,  78.000000,  -1.282031,  89.122184, 102.454296,   0.440031,   0.445581,   0.542001,   0.560354, 
22729,   0.212039,   9.850067,   0.047054,   0.232386,  42.800300,   0.424958,  -0.047233,  -1.107557,   0.483256, -178.500000, -795.000000,  73.500000,  -1.273984,  89.146208, 102.879464,   0.437894,   0.443620,   0.543799,   0.561838, 
22730,   0.209368,   9.799365,  -0.011163,   0.449883,  42.785684,   0.369074,  -0.053200,  -1.109274,   0.488441, -181.500000, -795.000000,  75.000000,  -1.274585,  89.168280, 103.304936,   0.435713,   0.441681,   0.545544,   0.563352, 
22731,   0.249908,   9.849371,   0.020189,   0.313043,  43.138056,   0.405738,  -0.054430,  -1.120588,   0.500899, -181.500000, -798.000000,  79.500000,  -1.272171,  89.189736, 103.731888,   0.433542,   0.439717,   0.547304,   0.564863, 
22732,   0.334155,   9.714829,  -0.019733,   0.462943,  43.331144,   0.347965,  -0.057670,  -1.122669,   0.510298, -183.000000, -798.000000,  82.500000,  -1.285798,  89.198184, 104.162784,   0.431321,   0.437758,   0.548947,   0.566504, 
22733,   0.323883,   9.782887,   0.018924,   0.392256,  43.342756,   0.462465,  -0.055317,  -1.130274,   0.504282, -181.500000, -801.000000,  81.000000,  -1.291963,  89.213208, 104.594248,   0.429092,   0.435768,   0.550636,   0.568068, 
22734,   0.337827,   9.794982,   0.087889,   0.438643,  43.197004,   0.391730,  -0.051703,  -1.120951,   0.505112, -180.000000, -798.000000,  81.000000,  -1.309924,  89.218952, 105.024704,   0.426846,   0.433807,   0.552230,   0.569715, 
22735,   0.302807,   9.878708,   0.018242,   0.404505,  42.835408,   0.410072,  -0.066176,  -1.120402,   0.516385, -187.500000, -796.500000,  84.000000,  -1.321085,  89.239544, 105.452088,   0.424592,   0.431882,   0.553912,   0.571253, 
22736,   0.353263,   9.789970,   0.206558,   0.261669,  42.288260,   0.427787,  -0.077581,  -1.118588,   0.522796, -193.500000, -795.000000,  85.500000,  -1.340113,  89.238328, 105.876168,   0.422380,   0.429912,   0.555421,   0.572888, 
22737,   0.209509,   9.784823,  -0.136549,   0.447332,  41.936292,   0.298837,  -0.077923,  -1.120217,   0.531871, -193.500000, -795.000000,  88.500000,  -1.346222,  89.262600, 106.294672,   0.420163,   0.427999,   0.557085,   0.574330, 
22738,   0.263038,   9.838696,   0.187558,   0.264198,  41.766216,   0.395332,  -0.086600,  -1.118765,   0.542495, -198.000000, -793.500000,  91.500000,  -1.346045,  89.264600, 106.711048,   0.418072,   0.425983,   0.558653,   0.575848, 
22739,   0.157548,   9.770367,  -0.194192,   0.682160,  41.375552,   0.343679,  -0.080462,  -1.116233,   0.532773, -195.000000, -793.500000,  88.500000,  -1.350018,  89.287592, 107.124752,   0.415884,   0.424065,   0.560286,   0.577254, 
22740,   0.145679,   9.814920,  -0.046775,   0.278255,  40.880844,   0.449380,  -0.074308,  -1.110894,   0.532702, -192.000000, -792.000000,  88.500000,  -1.337239,  89.312480, 107.533840,   0.413789,   0.422085,   0.561965,   0.578562, 
22741,   0.292088,   9.823353,  -0.062727,   0.608627,  40.023764,   0.379772,  -0.092567,  -1.120482,   0.547681, -201.000000, -793.500000,  93.000000,  -1.349251,  89.329824, 107.936328,   0.411633,   0.420233,   0.563490,   0.579972, 
22742,   0.183045,   9.763664,  -0.246400,   0.293968,  39.370192,   0.384034,  -0.098005,  -1.116949,   0.548907, -204.000000, -792.000000,  93.000000,  -1.346455,  89.379536, 108.330280,   0.409474,   0.418462,   0.565201,   0.581136, 
22743,   0.354949,   9.883805,   0.023356,   0.430820,  38.538512,   0.360129,  -0.089311,  -1.115595,   0.547935, -199.500000, -792.000000,  93.000000,  -1.358527,  89.387272, 108.717248,   0.407415,   0.416633,   0.566598,   0.582512, 
22744,   0.223579,   9.791000,  -0.346801,   0.507980,  37.835136,   0.274024,  -0.090198,  -1.125281,   0.551317, -199.500000, -795.000000,  94.500000,  -1.373061,  89.436520, 109.095592,   0.405237,   0.415007,   0.568168,   0.583660, 
22745,   0.389264,   9.943031,   0.194800,   0.134097,  37.196172,   0.402634,  -0.098518,  -1.119393,   0.562519, -204.000000, -792.000000,  97.500000,  -1.382628,  89.438624, 109.468448,   0.403283,   0.413215,   0.569496,   0.585004, 
22746,   0.283854,   9.735596,  -0.202127,   0.651999,  36.571544,   0.257995,  -0.099577,  -1.129893,   0.570439, -204.000000, -795.000000, 100.500000,  -1.397396,  89.467032, 109.834496,   0.401238,   0.411569,   0.570907,   0.586201, 
22747,   0.264236,   9.806245,  -0.018094,   0.103950,  35.879564,   0.378911,  -0.107570,  -1.125183,   0.562913, -208.500000, -793.500000,  97.500000,  -1.396220,  89.487096, 110.194912,   0.399322,   0.409831,   0.572300,   0.587350, 
22748,   0.344901,   9.729753,  -0.053545,   0.585532,  35.059436,   0.256507,  -0.121189,  -1.120562,   0.551499, -216.000000, -792.000000,  93.000000,  -1.415083,  89.491520, 110.547896,   0.397399,   0.408177,   0.573515,   0.588620, 
22749,   0.214814,   9.893259,   0.011695,   0.003135,  34.367532,   0.377045,  -0.114067,  -1.132151,   0.572059, -211.500000, -795.000000, 100.500000,  -1.413253,  89.517680, 110.892608,   0.395547,   0.406535,   0.574887,   0.589680, 
22750,   0.425385,   9.760165,  -0.058235,   0.526484,  33.431744,   0.270452,  -0.109330,  -1.141747,   0.579331, -208.500000, -798.000000, 103.500000,  -1.439685,  89.522272, 111.229320,   0.393661,   0.404994,   0.576009,   0.590908, 
22751,   0.195980,   9.875199,  -0.088195,   0.255521,  32.080182,   0.260860,  -0.111339,  -1.132514,   0.576272, -210.000000, -795.000000, 102.000000,  -1.442515,  89.550784, 111.554280,   0.391866,   0.403467,   0.577287,   0.591882, 
22752,   0.313928,   9.833402,  -0.111541,   0.348570,  31.056614,   0.191482,  -0.116590,  -1.125360,   0.582613, -213.000000, -792.000000, 103.500000,  -1.456570,  89.570024, 111.867320,   0.390106,   0.402025,   0.578435,   0.592899, 
22753,   0.295219,   9.703446,  -0.098195,   0.484122,  30.015960,   0.278922,  -0.126172,  -1.136400,   0.586967, -217.500000, -795.000000, 105.000000,  -1.460962,  89.586416, 112.170112,   0.388461,   0.400575,   0.579568,   0.593863, 
22754,   0.251899,   9.776074,   0.026645,   0.492951,  29.152498,   0.167946,  -0.132668,  -1.143367,   0.596113, -220.500000, -796.500000, 108.000000,  -1.468273,  89.587728, 112.463768,   0.386900,   0.399134,   0.580580,   0.594881, 
22755,   0.267834,   9.810697,   0.123575,   0.151514,  28.504264,   0.239697,  -0.129053,  -1.134045,   0.596944, -219.000000, -793.500000, 108.000000,  -1.471406,  89.590216, 112.750240,   0.385383,   0.397703,   0.581573,   0.595839, 
22756,   0.311216,   9.923493,   0.066729,   0.472589,  27.960510,   0.163950,  -0.137063,  -1.132142,   0.579766, -223.500000, -793.500000, 102.000000,  -1.482752,  89.576864, 113.030376,   0.383910,   0.396290,   0.582430,   0.596880, 
22757,   0.263908,   9.658189,   0.155901,   0.122831,  27.357308,   0.340844,  -0.140507,  -1.140649,   0.574398, -225.000000, -796.500000, 100.500000,  -1.485701,  89.571168, 113.304744,   0.382484,   0.394890,   0.583337,   0.597836, 
22758,   0.294337,   9.901704,   0.063638,   0.326563,  27.089118,   0.172968,  -0.143218,  -1.137480,   0.579836, -226.500000, -795.000000, 102.000000,  -1.487930,  89.566544, 113.575032,   0.381078,   0.393511,   0.584238,   0.598770, 
22759,   0.160125,   9.811200,   0.086772,   0.323364,  26.768988,   0.193354,  -0.147158,  -1.145625,   0.597733, -228.000000, -796.500000, 108.000000,  -1.479717,  89.559064, 113.841792,   0.379756,   0.392087,   0.585147,   0.599673, 
22760,   0.217030,   9.681573,   0.077075,   0.303621,  26.520282,   0.258341,  -0.141704,  -1.146351,   0.606160, -225.000000, -796.500000, 111.000000,  -1.469022,  89.553496, 114.105984,   0.378445,   0.390661,   0.586054,   0.600537, 
22761,   0.154124,   9.898743,   0.054918,   0.630129,  26.518932,   0.140073,  -0.146441,  -1.136754,   0.598888, -228.000000, -793.500000, 108.000000,  -1.460176,  89.542272, 114.369072,   0.377147,   0.389229,   0.586916,   0.601429, 
22762,   0.145765,   9.886152,   0.169929,   0.066077,  26.814400,   0.260950,  -0.143201,  -1.134674,   0.589489, -226.500000, -793.500000, 105.000000,  -1.451438,  89.535712, 114.633152,   0.375827,   0.387808,   0.587806,   0.602300, 
22763,   0.267913,   9.881486,   0.189132,   0.362123,  27.204472,   0.131895,  -0.145911,  -1.131504,   0.594928, -228.000000, -792.000000, 106.500000,  -1.452580,  89.515184, 114.901864,   0.374477,   0.386369,   0.588604,   0.603291, 
22764,   0.190106,   9.841157,   0.118295,   0.264572,  27.765256,   0.158189,  -0.152050,  -1.134036,   0.604651, -231.000000, -792.000000, 109.500000,  -1.448365,  89.505352, 115.174864,   0.373098,   0.384915,   0.589490,   0.604224, 
22765,   0.253315,   9.775652,   0.250328,   0.365739,  28.468506,   0.302342,  -0.152938,  -1.143722,   0.608033, -231.000000, -795.000000, 111.000000,  -1.443381,  89.474824, 115.454336,   0.371751,   0.383351,   0.590283,   0.605273, 
22766,   0.125693,   9.764388,   0.230484,   0.294576,  29.082304,   0.268949,  -0.165434,  -1.158019,   0.603059, -237.000000, -799.500000, 109.500000,  -1.431363,  89.457000, 115.740688,   0.370357,   0.381751,   0.591180,   0.606248, 
22767,   0.115397,   9.809451,   0.171421,   0.380698,  29.980692,   0.294562,  -0.165776,  -1.159649,   0.612134, -237.000000, -799.500000, 112.500000,  -1.412338,  89.438368, 116.034400,   0.368962,   0.380075,   0.592120,   0.607230, 
22768,   0.078560,   9.853958,   0.151111,   0.372070,  30.843532,   0.283688,  -0.164684,  -1.143536,   0.623520, -237.000000, -793.500000, 115.500000,  -1.394993,  89.423944, 116.336664,   0.367499,   0.378376,   0.593104,   0.608223, 
22769,   0.121222,   9.734471,   0.121250,   0.244525,  31.849294,   0.334963,  -0.170480,  -1.144439,   0.624168, -240.000000, -793.500000, 115.500000,  -1.380646,  89.419072, 116.648440,   0.365939,   0.376674,   0.594159,   0.609207, 
22770,   0.195505,   9.858237,   0.137232,   0.434200,  32.782550,   0.266604,  -0.169951,  -1.139189,   0.620208, -240.000000, -792.000000, 114.000000,  -1.373038,  89.406624, 116.970440,   0.364303,   0.374920,   0.595169,   0.610268, 
22771,   0.251005,   9.805182,   0.265085,   0.475504,  33.494350,   0.314517,  -0.175046,  -1.134027,   0.612358, -243.000000, -790.500000, 111.000000,  -1.371908,  89.383864, 117.300568,   0.362621,   0.373124,   0.596125,   0.611426, 
22772,   0.197829,   9.814563,   0.102400,   0.439623,  34.196852,   0.248277,  -0.182276,  -1.152672,   0.610696, -246.000000, -796.500000, 111.000000,  -1.369881,  89.376728, 117.636952,   0.360859,   0.371339,   0.597186,   0.612519, 
22773,   0.279573,   9.807341,   0.313103,   0.487556,  34.713000,   0.310193,  -0.188618,  -1.161632,   0.605652, -249.000000, -799.500000, 109.500000,  -1.372330,  89.347984, 117.980080,   0.359106,   0.369476,   0.598140,   0.613761, 
22774,   0.183595,   9.836247,   0.230964,   0.345213,  35.077940,   0.289000,  -0.176822,  -1.153398,   0.619123, -243.000000, -796.500000, 114.000000,  -1.370532,  89.326888, 118.327640,   0.357319,   0.367584,   0.599149,   0.614950, 
22775,   0.265246,   9.805775,   0.374307,   0.262319,  35.392840,   0.367173,  -0.178816,  -1.141358,   0.625717, -244.500000, -792.000000, 115.500000,  -1.365912,  89.295128, 118.679496,   0.355552,   0.365616,   0.600113,   0.616191, 
22776,   0.112849,   9.807628,   0.203860,   0.531561,  35.691472,   0.319359,  -0.193135,  -1.142800,   0.622800, -252.000000, -792.000000, 114.000000,  -1.360231,  89.276464, 119.033304,   0.353738,   0.363674,   0.601157,   0.617367, 
22777,   0.165841,   9.678379,   0.175708,   0.451302,  35.985676,   0.410731,  -0.188585,  -1.156018,   0.624956, -249.000000, -796.500000, 115.500000,  -1.343209,  89.262688, 119.390256,   0.351950,   0.361670,   0.602273,   0.618493, 
22778,   0.184395,   9.714018,   0.177772,   0.502953,  36.269664,   0.303207,  -0.194723,  -1.158550,   0.634680, -252.000000, -796.500000, 118.500000,  -1.336362,  89.248536, 119.749968,   0.350087,   0.359697,   0.603349,   0.619646, 
22779,   0.167564,   9.865239,   0.246143,   0.421901,  36.863164,   0.356374,  -0.199819,  -1.153389,   0.626830, -255.000000, -795.000000, 115.500000,  -1.325164,  89.228056, 120.114352,   0.348236,   0.357651,   0.604409,   0.620825, 
22780,   0.227798,   9.858078,   0.152817,   0.528425,  37.105696,   0.283530,  -0.191671,  -1.160091,   0.620165, -250.500000, -798.000000, 114.000000,  -1.327703,  89.219448, 120.481760,   0.346257,   0.355700,   0.605499,   0.621993, 
22781,   0.208254,   9.862315,   0.317789,   0.231393,  37.670204,   0.368613,  -0.203930,  -1.162348,   0.649264, -256.500000, -796.500000, 123.000000,  -1.321126,  89.209912, 120.854112,   0.344303,   0.353670,   0.606627,   0.623153, 
22782,   0.220788,   9.810168,   0.191683,   0.229444,  38.129240,   0.254906,  -0.217532,  -1.154920,   0.647501, -264.000000, -793.500000, 121.500000,  -1.321962,  89.202664, 121.231800,   0.342262,   0.351649,   0.607743,   0.624320, 
22783,   0.241403,   9.725959,   0.129091,   0.376290,  38.420816,   0.321658,  -0.214121,  -1.152025,   0.633565, -262.500000, -793.500000, 117.000000,  -1.318072,  89.193992, 121.612520,   0.340231,   0.349579,   0.608868,   0.625485, 
22784,   0.336022,   9.716946,   0.180085,   0.603088,  38.600668,   0.415348,  -0.213763,  -1.147590,   0.634143, -262.500000, -792.000000, 117.000000,  -1.324089,  89.174688, 121.996088,   0.338163,   0.347517,   0.609914,   0.626744, 
22785,   0.201904,   9.823049,   0.261584,   0.536932,  38.460116,   0.347334,  -0.219559,  -1.148493,   0.634790, -265.500000, -792.000000, 117.000000,  -1.318094,  89.154032, 122.379504,   0.336163,   0.345385,   0.610986,   0.627972, 
22786,   0.138282,   9.907287,   0.261364,   0.445249,  38.271940,   0.425175,  -0.229687,  -1.167589,   0.633452, -270.000000, -798.000000, 117.000000,  -1.310054,  89.136016, 122.761600,   0.334161,   0.343245,   0.612051,   0.629154, 
22787,   0.175975,   9.847112,   0.372096,   0.326545,  38.025688,   0.345034,  -0.232414,  -1.167226,   0.629239, -271.500000, -798.000000, 115.500000,  -1.301729,  89.106424, 123.141792,   0.332203,   0.341081,   0.613047,   0.630392, 
22788,  -0.283502,   9.712102,   0.003726,   0.694339,  37.380980,   0.264140,  -0.234407,  -1.155186,   0.635833, -273.000000, -793.500000, 117.000000,  -1.268401,  89.094768, 123.516856,   0.330356,   0.338859,   0.614200,   0.631448, 
22789,   0.174009,   9.918995,   0.419343,  -0.060528,  36.714232,   0.394829,  -0.243802,  -1.162605,   0.645302, -277.500000, -795.000000, 120.000000,  -1.253684,  89.079944, 123.886672,   0.328441,   0.336754,   0.615255,   0.632551, 
22790,   0.037314,   9.636003,  -0.130262,   0.632401,  36.331560,   0.288327,  -0.247075,  -1.170298,   0.635396, -279.000000, -798.000000, 117.000000,  -1.249154,  89.085712, 124.249536,   0.326441,   0.334792,   0.616357,   0.633537, 
22791,   0.324519,   9.810014,   0.225243,  -0.080414,  36.264076,   0.494915,  -0.254693,  -1.158347,   0.638101, -283.500000, -793.500000, 117.000000,  -1.243580,  89.098240, 124.610768,   0.324435,   0.332852,   0.617494,   0.634480, 
22792,   0.296598,   9.806372,  -0.154770,   1.126635,  35.938876,   0.260686,  -0.254848,  -1.156355,   0.652291, -283.500000, -792.000000, 121.500000,  -1.265829,  89.106784, 124.969208,   0.322306,   0.331068,   0.618521,   0.635513, 
22793,   0.167728,   9.857448,   0.199451,  -0.074964,  36.034504,   0.444481,  -0.255565,  -1.165226,   0.651136, -283.500000, -795.000000, 121.500000,  -1.263299,  89.129184, 125.326440,   0.320273,   0.329187,   0.619682,   0.636387, 
22794,   0.415310,   9.770614,   0.065040,   0.741356,  36.046236,   0.206132,  -0.256094,  -1.170475,   0.655096, -283.500000, -796.500000, 123.000000,  -1.286099,  89.125888, 125.684976,   0.318162,   0.327360,   0.620619,   0.637461, 
22795,   0.104285,   9.796062,   0.016903,   0.314646,  36.040752,   0.294165,  -0.247042,  -1.164685,   0.654701, -279.000000, -795.000000, 123.000000,  -1.276015,  89.146888, 126.043352,   0.316163,   0.325419,   0.621786,   0.638311, 
22796,   0.351094,   9.783550,   0.238079,   0.765237,  35.877816,   0.333947,  -0.248101,  -1.175185,   0.662622, -279.000000, -798.000000, 126.000000,  -1.287551,  89.117360, 126.402792,   0.314182,   0.323454,   0.622612,   0.639498, 
22797,   0.097933,   9.803965,   0.016861,   0.309115,  35.487440,   0.330689,  -0.256436,  -1.172105,   0.664171, -283.500000, -796.500000, 126.000000,  -1.275317,  89.139072, 126.756984,   0.312210,   0.321519,   0.623764,   0.640313, 
22798,   0.389840,   9.861394,   0.240781,   0.372420,  35.220088,   0.265716,  -0.258104,  -1.161241,   0.652038, -285.000000, -793.500000, 121.500000,  -1.288129,  89.128016, 127.108872,   0.310200,   0.319640,   0.624645,   0.641359, 
22799,   0.052698,   9.861018,  -0.093404,   0.455837,  34.979968,   0.314586,  -0.267857,  -1.173096,   0.660930, -289.500000, -796.500000, 124.500000,  -1.279097,  89.148688, 127.457176,   0.308241,   0.317745,   0.625755,   0.642161, 
22800,   0.364911,   9.907001,   0.239446,   0.071205,  35.167836,   0.348499,  -0.274012,  -1.178435,   0.661000, -292.500000, -798.000000, 124.500000,  -1.286013,  89.151712, 127.806208,   0.306240,   0.315888,   0.626724,   0.643105, 
22801,   0.236042,   9.726157,  -0.106293,   0.420595,  34.872804,   0.216562,  -0.276397,  -1.176443,   0.647712, -294.000000, -798.000000, 120.000000,  -1.295277,  89.172440, 128.154128,   0.304178,   0.314090,   0.627770,   0.643942, 
22802,   0.313546,   9.699474,   0.091381,   0.600080,  34.810836,   0.356685,  -0.277315,  -1.151095,   0.656038, -295.500000, -789.000000, 121.500000,  -1.291732,  89.172088, 128.500400,   0.302249,   0.312168,   0.628718,   0.644846, 
22803,   0.134670,   9.881015,   0.097253,   0.709969,  34.614288,   0.241266,  -0.277982,  -1.151547,   0.683841, -295.500000, -787.500000, 130.500000,  -1.293113,  89.164832, 128.846096,   0.300314,   0.310258,   0.629613,   0.645798, 
22804,   0.158836,   9.876364,   0.321102,   0.047954,  34.554120,   0.354745,  -0.294248,  -1.173175,   0.692226, -303.000000, -793.500000, 133.500000,  -1.280902,  89.159832, 129.189896,   0.298459,   0.308289,   0.630551,   0.646698, 
22805,   0.141388,   9.732786,   0.030514,   0.621749,  34.392560,   0.332087,  -0.292847,  -1.161046,   0.675231, -303.000000, -790.500000, 127.500000,  -1.281909,  89.156448, 129.532504,   0.296528,   0.306400,   0.631449,   0.647609, 
22806,   0.120584,   9.890967,   0.178007,   0.159921,  34.589496,   0.365310,  -0.284357,  -1.166119,   0.659491, -298.500000, -793.500000, 123.000000,  -1.267541,  89.159864, 129.875456,   0.294656,   0.304434,   0.632414,   0.648432, 
22807,   0.285354,   9.798891,   0.077664,   0.682748,  34.472188,   0.273253,  -0.287956,  -1.172636,   0.668312, -300.000000, -795.000000, 126.000000,  -1.276924,  89.152256, 130.218672,   0.292681,   0.302571,   0.633255,   0.649377, 
22808,   0.114178,   9.762863,   0.121217,   0.103009,  34.900604,   0.291884,  -0.284528,  -1.166934,   0.664028, -298.500000, -793.500000, 124.500000,  -1.263576,  89.163976, 130.563016,   0.290774,   0.300624,   0.634268,   0.650160, 
22809,   0.437019,   9.871746,   0.290714,   0.466323,  35.166592,   0.283206,  -0.302600,  -1.172901,   0.684123, -307.500000, -793.500000, 130.500000,  -1.283766,  89.143624, 130.911896,   0.288734,   0.298755,   0.635015,   0.651208, 
22810,   0.132409,   9.902898,   0.091940,   0.159949,  35.433772,   0.206251,  -0.308363,  -1.168191,   0.704075, -310.500000, -790.500000, 136.500000,  -1.280161,  89.152064, 131.262464,   0.286736,   0.296809,   0.635976,   0.652026, 
22811,   0.374210,   9.791014,   0.305535,   0.061219,  35.897364,   0.361350,  -0.306620,  -1.154433,   0.678006, -310.500000, -787.500000, 127.500000,  -1.289682,  89.138144, 131.617384,   0.284697,   0.294857,   0.636788,   0.653011, 
22812,   0.138425,   9.693897,  -0.023239,   0.591453,  36.536364,   0.308921,  -0.318058,  -1.158231,   0.665111, -316.500000, -789.000000, 123.000000,  -1.290376,  89.139952, 131.977552,   0.282637,   0.292865,   0.637725,   0.653900, 
22813,   0.289286,   9.815610,   0.294296,   0.578536,  36.999936,   0.499777,  -0.324196,  -1.160763,   0.674834, -319.500000, -789.000000, 126.000000,  -1.291494,  89.115088, 132.343640,   0.280605,   0.290772,   0.638514,   0.654942, 
22814,   0.218017,   9.703712,   0.562213,   0.452923,  37.283712,   0.268455,  -0.324196,  -1.160763,   0.674834, -319.500000, -789.000000, 126.000000,  -1.291821,  89.081552, 132.714496,   0.278563,   0.288622,   0.639253,   0.656028, 
22815,  -0.024554,   9.704256,  -0.154283,   0.857447,  37.371588,   0.239661,  -0.313304,  -1.165021,   0.682036, -313.500000, -790.500000, 129.000000,  -1.269555,  89.092904, 133.085376,   0.276536,   0.286452,   0.640305,   0.656810, 
22816,   0.438151,   9.883331,   0.730403,   0.472424,  37.542324,   0.403809,  -0.322153,  -1.164384,   0.697198, -318.000000, -789.000000, 133.500000,  -1.282169,  89.033728, 133.458848,   0.274473,   0.284297,   0.640871,   0.658076, 
22817,  -0.009458,   9.918028,   0.208925,   0.818703,  38.633948,   0.061494,  -0.339011,  -1.161843,   0.695182, -327.000000, -787.500000, 132.000000,  -1.278309,  89.009912, 133.836824,   0.272380,   0.282102,   0.641676,   0.659100, 
22818,   0.291941,   9.992426,   0.855092,  -0.369966,  40.942652,   0.454941,  -0.342455,  -1.170351,   0.689814, -328.500000, -790.500000, 130.500000,  -1.269123,  88.952264, 134.233520,   0.270287,   0.279688,   0.642335,   0.660336, 
22819,   0.344495,   9.582590,   0.276253,   0.930984,  43.082672,   0.289720,  -0.339574,  -1.172706,   0.679837, -327.000000, -792.000000, 127.500000,  -1.290328,  88.905704, 134.653056,   0.267862,   0.277349,   0.643038,   0.661636, 
22820,   0.256925,   9.681382,   0.409635,   0.446021,  45.317784,   0.524256,  -0.342659,  -1.176778,   0.675046, -328.500000, -793.500000, 126.000000,  -1.278199,  88.869000, 135.094208,   0.265473,   0.274720,   0.643925,   0.662848, 
22821,   0.447021,   9.900345,   0.777693,   1.018767,  46.765688,   0.373528,  -0.337222,  -1.180311,   0.673821, -325.500000, -795.000000, 126.000000,  -1.297450,  88.785888, 135.554560,   0.262893,   0.272048,   0.644489,   0.664413, 
22822,  -0.005353,   9.860524,   0.298622,   0.034200,  47.942356,   0.409696,  -0.339590,  -1.175513,   0.670185, -327.000000, -793.500000, 124.500000,  -1.271138,  88.782536, 136.026272,   0.260314,   0.269234,   0.645648,   0.665452, 
22823,   0.391824,   9.774949,   0.643819,   0.560350,  49.053320,   0.452637,  -0.352304,  -1.158399,   0.665040, -334.500000, -787.500000, 121.500000,  -1.274867,  88.724448, 136.511152,   0.257613,   0.266394,   0.646443,   0.666892, 
22824,  -0.169212,   9.764297,  -0.031386,   0.684689,  50.324700,   0.372159,  -0.361495,  -1.159391,   0.689277, -339.000000, -786.000000, 129.000000,  -1.239147,  88.730728, 137.006048,   0.254916,   0.263403,   0.647698,   0.667874, 
22825,   0.321654,   9.830892,   0.584908,   0.387530,  51.590128,   0.678565,  -0.376139,  -1.159656,   0.705086, -346.500000, -784.500000, 133.500000,  -1.225540,  88.693064, 137.515136,   0.252111,   0.260363,   0.648678,   0.669189, 
22826,  -0.017990,   9.614338,  -0.117115,   0.921937,  52.619584,   0.441654,  -0.373975,  -1.170882,   0.693955, -345.000000, -789.000000, 130.500000,  -1.208387,  88.706856, 138.033200,   0.249151,   0.257359,   0.649969,   0.670208, 
22827,   0.129445,   9.943688,   0.406503,   0.348689,  53.733808,   0.629194,  -0.369442,  -1.186906,   0.686459, -342.000000, -795.000000, 129.000000,  -1.180504,  88.696600, 138.563408,   0.246227,   0.254162,   0.651150,   0.671348, 
22828,   0.254491,   9.846214,  -0.163451,   0.783747,  54.179572,   0.435937,  -0.388294,  -1.172325,   0.691037, -352.500000, -789.000000, 129.000000,  -1.196036,  88.724456, 139.100928,   0.242928,   0.251258,   0.652472,   0.672377, 
22829,   0.301958,   9.822334,   0.145673,   0.096222,  54.259348,   0.653156,  -0.387188,  -1.194051,   0.687826, -351.000000, -796.500000, 129.000000,  -1.192062,  88.747424, 139.640480,   0.239730,   0.248205,   0.653784,   0.673367, 
22830,   0.450354,   9.772793,  -0.088598,   1.055077,  53.831092,   0.448206,  -0.390412,  -1.193325,   0.706877, -352.500000, -795.000000, 135.000000,  -1.229833,  88.763600, 140.178688,   0.236313,   0.245386,   0.654955,   0.674469, 
22831,   0.141153,   9.904528,   0.149842,   0.340480,  53.760164,   0.559948,  -0.398935,  -1.193865,   0.703312, -357.000000, -795.000000, 133.500000,  -1.217900,  88.783584, 140.713552,   0.233191,   0.242299,   0.656244,   0.675434, 
22832,   0.316372,   9.759663,   0.201541,   0.893515,  53.713152,   0.506219,  -0.402613,  -1.173768,   0.688120, -360.000000, -789.000000, 127.500000,  -1.223769,  88.775328, 141.249104,   0.230012,   0.239244,   0.657299,   0.676566, 
22833,   0.090216,   9.822776,   0.052620,   0.624333,  53.803876,   0.537743,  -0.416915,  -1.172404,   0.694855, -367.500000, -787.500000, 129.000000,  -1.202904,  88.790128, 141.784208,   0.226942,   0.236081,   0.658545,   0.677511, 
22834,   0.349692,   9.847706,   0.238571,   0.617511,  53.595316,   0.532029,  -0.418145,  -1.183719,   0.707312, -367.500000, -790.500000, 133.500000,  -1.206169,  88.789648, 142.319008,   0.223759,   0.233023,   0.659629,   0.678571, 
22835,   0.180768,   9.884010,  -0.025155,   0.464461,  53.252264,   0.447855,  -0.412879,  -1.188066,   0.710625, -364.500000, -792.000000, 135.000000,  -1.205713,  88.815200, 142.851072,   0.220556,   0.230002,   0.660852,   0.679450, 
22836,   0.382783,   9.742773,   0.100254,   0.436073,  53.010884,   0.589270,  -0.420889,  -1.186162,   0.693447, -369.000000, -792.000000, 129.000000,  -1.218131,  88.830768, 143.380224,   0.217316,   0.227055,   0.661984,   0.680405, 
22837,   0.260885,   9.842585,  -0.167996,   0.990093,  52.566084,   0.450157,  -0.432122,  -1.183533,   0.695320, -375.000000, -790.500000, 129.000000,  -1.230559,  88.859440, 143.906288,   0.214059,   0.224137,   0.663156,   0.681242, 
22838,   0.295339,   9.815650,   0.082865,   0.504207,  52.172292,   0.536442,  -0.437560,  -1.180000,   0.696545, -378.000000, -789.000000, 129.000000,  -1.237017,  88.883128, 144.427648,   0.210874,   0.221199,   0.664297,   0.682084, 
22839,   0.198014,   9.764267,   0.137777,   0.617854,  51.401804,   0.486292,  -0.440287,  -1.179637,   0.692332, -379.500000, -789.000000, 127.500000,  -1.237325,  88.890080, 144.943136,   0.207791,   0.218225,   0.665334,   0.682993, 
22840,   0.161311,   9.815758,   0.034128,   0.461012,  50.875124,   0.443296,  -0.449185,  -1.187419,   0.678537, -384.000000, -792.000000, 123.000000,  -1.228248,  88.907776, 145.453120,   0.204766,   0.215237,   0.666412,   0.683782, 
22841,   0.193840,   9.791417,   0.164912,   0.691758,  50.182700,   0.439338,  -0.448297,  -1.177734,   0.675154, -384.000000, -789.000000, 121.500000,  -1.220657,  88.902120, 145.956880,   0.201814,   0.212251,   0.667336,   0.684700, 
22842,   0.097943,   9.836991,   0.053605,   0.677637,  49.625344,   0.454422,  -0.443014,  -1.179274,   0.688119, -381.000000, -789.000000, 126.000000,  -1.208738,  88.909352, 146.453760,   0.198900,   0.209298,   0.668317,   0.685508, 
22843,   0.274735,   9.763962,   0.134807,   0.283434,  48.849672,   0.515592,  -0.449510,  -1.186242,   0.697264, -384.000000, -790.500000, 129.000000,  -1.208824,  88.916616, 146.944160,   0.195949,   0.206447,   0.669243,   0.686304, 
22844,   0.098305,   9.813330,   0.064608,   0.774949,  47.877348,   0.401230,  -0.457333,  -1.180718,   0.685201, -388.500000, -789.000000, 124.500000,  -1.201236,  88.918784, 147.426064,   0.193104,   0.203591,   0.670138,   0.687102, 
22845,   0.165590,   9.817695,   0.077965,   0.414525,  47.327784,   0.429076,  -0.466214,  -1.185693,   0.681058, -393.000000, -790.500000, 123.000000,  -1.195752,  88.929384, 147.899376,   0.190278,   0.200806,   0.671046,   0.687822, 
22846,   0.186069,   9.831262,   0.116160,   0.385236,  46.288840,   0.391922,  -0.475421,  -1.189491,   0.695642, -397.500000, -790.500000, 127.500000,  -1.191685,  88.939736, 148.365104,   0.187485,   0.198068,   0.671920,   0.688517, 
22847,   0.146212,   9.773718,  -0.065028,   0.697233,  45.521304,   0.426204,  -0.478661,  -1.191572,   0.705041, -399.000000, -790.500000, 130.500000,  -1.179862,  88.960552, 148.821984,   0.184774,   0.195352,   0.672855,   0.689123, 
22848,   0.110897,   9.788492,  -0.164036,   0.553662,  44.793988,   0.390427,  -0.478165,  -1.191935,   0.681777, -399.000000, -792.000000, 123.000000,  -1.168004,  88.990992, 149.270624,   0.182094,   0.192693,   0.673818,   0.689644, 
22849,   0.138944,   9.771358,  -0.050330,   0.570276,  43.964672,   0.388446,  -0.489961,  -1.200168,   0.668305, -405.000000, -795.000000, 118.500000,  -1.155104,  89.016904, 149.712304,   0.179466,   0.190056,   0.674727,   0.690161, 
22850,   0.096501,   9.842231,  -0.219188,   0.560705,  43.188772,   0.385193,  -0.492313,  -1.192563,   0.674322, -406.500000, -792.000000, 120.000000,  -1.144895,  89.056488, 150.145504,   0.176852,   0.187504,   0.675699,   0.690588, 
22851,   0.242957,   9.813869,   0.060244,   0.211559,  42.426612,   0.400683,  -0.487093,  -1.164684,   0.672925, -405.000000, -783.000000, 118.500000,  -1.145949,  89.081904, 150.571488,   0.174238,   0.185038,   0.676548,   0.691098, 
22852,   0.118403,   9.754116,  -0.337118,   0.646008,  41.756704,   0.252386,  -0.490879,  -1.174821,   0.676632, -406.500000, -786.000000, 120.000000,  -1.149550,  89.128544, 150.990032,   0.171614,   0.182654,   0.677486,   0.691450, 
22853,   0.229791,   9.751682,  -0.154125,   0.628904,  41.225184,   0.488371,  -0.486158,  -1.187225,   0.674251, -403.500000, -790.500000, 120.000000,  -1.148678,  89.161344, 151.401984,   0.169081,   0.180261,   0.678338,   0.691868, 
22854,   0.181932,   9.876913,  -0.025741,   0.565370,  40.841716,   0.271987,  -0.491221,  -1.176450,   0.685707, -406.500000, -786.000000, 123.000000,  -1.153961,  89.186240, 151.809408,   0.166553,   0.177918,   0.679126,   0.692334, 
22855,   0.145576,   9.771603,  -0.196051,   0.114846,  40.460896,   0.399505,  -0.506428,  -1.187578,   0.686171, -414.000000, -789.000000, 123.000000,  -1.145967,  89.232656, 152.212736,   0.164089,   0.175544,   0.680034,   0.692621, 
22856,   0.216296,   9.776033,  -0.191390,   0.582311,  39.970540,   0.395943,  -0.512803,  -1.202151,   0.661822, -417.000000, -795.000000, 115.500000,  -1.144877,  89.262488, 152.612064,   0.161635,   0.173207,   0.680820,   0.693007, 
22857,   0.145160,   9.799985,  -0.204297,   0.576715,  39.401140,   0.377062,  -0.520592,  -1.191013,   0.669064, -421.500000, -790.500000, 117.000000,  -1.140355,  89.297648, 153.006096,   0.159227,   0.170888,   0.681635,   0.693348, 
22858,   0.130660,   9.833858,  -0.274612,   0.562693,  38.849592,   0.367108,  -0.526201,  -1.188296,   0.674827, -424.500000, -789.000000, 118.500000,  -1.138545,  89.340272, 153.394224,   0.156827,   0.168627,   0.682475,   0.693631, 
22859,   0.054622,   9.785845,  -0.347801,   0.447615,  38.502976,   0.377088,  -0.523490,  -1.191465,   0.669388, -423.000000, -790.500000, 117.000000,  -1.129682,  89.392384, 153.777968,   0.154479,   0.166355,   0.683357,   0.693822, 
22860,   0.204522,   9.820986,  -0.186726,   0.487962,  38.226692,   0.294298,  -0.519875,  -1.182142,   0.670219, -421.500000, -787.500000, 117.000000,  -1.134486,  89.427944, 154.158848,   0.152092,   0.164159,   0.684115,   0.694126, 
22861,   0.143989,   9.802949,  -0.207255,   0.219674,  38.013736,   0.278856,  -0.526388,  -1.191916,   0.669712, -424.500000, -790.500000, 117.000000,  -1.131192,  89.472448, 154.537072,   0.149758,   0.161940,   0.684935,   0.694361, 
22862,   0.150383,   9.748592,  -0.226129,   0.582872,  38.270920,   0.287426,  -0.529987,  -1.198433,   0.678534, -426.000000, -792.000000, 120.000000,  -1.127684,  89.504344, 154.916288,   0.147436,   0.159692,   0.685663,   0.694656, 
22863,   0.060408,   9.790451,  -0.295230,   0.590719,  39.080880,   0.380229,  -0.533290,  -1.171093,   0.673571, -429.000000, -783.000000, 117.000000,  -1.120146,  89.541232, 155.300176,   0.145102,   0.157394,   0.686423,   0.694910, 
22864,   0.261565,   9.831241,   0.210886,   0.282964,  40.095852,   0.412277,  -0.540395,  -1.156698,   0.662664, -433.500000, -778.500000, 112.500000,  -1.125749,  89.540928, 155.694368,   0.142678,   0.155066,   0.686953,   0.695416, 
22865,   0.112778,   9.796569,  -0.203951,   0.642598,  41.704416,   0.270759,  -0.546737,  -1.165657,   0.657619, -436.500000, -781.500000, 111.000000,  -1.131113,  89.564968, 156.100448,   0.140150,   0.152695,   0.687648,   0.695790, 
22866,   0.352053,   9.859175,   0.245219,   0.230840,  43.511928,   0.420178,  -0.555961,  -1.172262,   0.662551, -441.000000, -783.000000, 112.500000,  -1.132460,  89.555576, 156.524208,   0.137578,   0.150145,   0.688138,   0.696351, 
22867,   0.134002,   9.752191,   0.097750,   1.064045,  45.243800,   0.251256,  -0.562132,  -1.180407,   0.652969, -444.000000, -786.000000, 109.500000,  -1.142434,  89.539480, 156.966800,   0.134848,   0.147528,   0.688601,   0.696984, 
22868,   0.092951,   9.865696,   0.163030,   0.312796,  47.461460,   0.430331,  -0.559079,  -1.181947,   0.638455, -442.500000, -787.500000, 105.000000,  -1.119733,  89.532680, 157.428672,   0.132185,   0.144608,   0.689187,   0.697546, 
22869,   0.192713,   9.784712,   0.277620,   0.933828,  49.479416,   0.446915,  -0.555823,  -1.177061,   0.638708, -441.000000, -786.000000, 105.000000,  -1.122210,  89.501392, 157.912224,   0.129263,   0.141676,   0.689588,   0.698280, 
22870,  -0.038838,   9.770986,  -0.098278,   0.446493,  51.437688,   0.467636,  -0.559421,  -1.183577,   0.647530, -442.500000, -787.500000, 108.000000,  -1.088481,  89.520136, 158.414400,   0.126382,   0.138468,   0.690357,   0.698689, 
22871,   0.243504,   9.794130,   0.185940,   0.720480,  53.091588,   0.456524,  -0.564875,  -1.182850,   0.639103, -445.500000, -787.500000, 105.000000,  -1.088052,  89.504352, 158.935344,   0.123228,   0.135311,   0.690894,   0.699362, 
22872,  -0.068858,   9.906111,   0.073917,   1.068652,  54.424872,   0.405721,  -0.558566,  -1.179504,   0.624843, -442.500000, -787.500000, 100.500000,  -1.067732,  89.499480, 159.471120,   0.120083,   0.131948,   0.691501,   0.699926, 
22873,   0.203946,   9.839102,   0.239971,   0.298923,  55.628064,   0.505647,  -0.568677,  -1.195794,   0.633157, -447.000000, -792.000000, 103.500000,  -1.059755,  89.495824, 160.019184,   0.116787,   0.128587,   0.692114,   0.700510, 
22874,   0.166030,   9.722773,   0.276199,   1.099518,  56.684456,   0.437503,  -0.577543,  -1.197963,   0.638667, -451.500000, -792.000000, 105.000000,  -1.061055,  89.466736, 160.579600,   0.113384,   0.125180,   0.692556,   0.701251, 
22875,   0.212777,   9.760911,   0.320835,   0.819307,  57.886368,   0.507988,  -0.591845,  -1.196599,   0.645401, -459.000000, -790.500000, 106.500000,  -1.058433,  89.441128, 161.151312,   0.109926,   0.121682,   0.693013,   0.701955, 
22876,   0.297344,   9.823181,   0.653181,   0.883378,  59.158368,   0.522590,  -0.592033,  -1.200221,   0.640287, -459.000000, -792.000000, 105.000000,  -1.059428,  89.385600, 161.736048,   0.106396,   0.118101,   0.693295,   0.702856, 
22877,   0.180844,   9.832315,   0.443991,   0.977197,  60.821352,   0.466140,  -0.584681,  -1.189180,   0.608454, -456.000000, -790.500000,  94.500000,  -1.061639,  89.341000, 162.334592,   0.102752,   0.114449,   0.693614,   0.703661, 
22878,   0.196465,   9.781895,   0.512532,   0.895380,  62.120900,   0.584060,  -0.599000,  -1.190623,   0.605536, -463.500000, -790.500000,  93.000000,  -1.056575,  89.288312, 162.949008,   0.099061,   0.110653,   0.693906,   0.704524, 
22879,   0.199044,   9.884225,   0.454785,   0.708836,  63.233372,   0.601770,  -0.613645,  -1.190889,   0.621346, -471.000000, -789.000000,  97.500000,  -1.058421,  89.247000, 163.575088,   0.095237,   0.106837,   0.694238,   0.705301, 
22880,   0.204373,   9.690183,   0.240462,   0.852248,  63.846996,   0.631658,  -0.627776,  -1.188711,   0.623544, -478.500000, -787.500000,  97.500000,  -1.056135,  89.221720, 164.208832,   0.091371,   0.102962,   0.694667,   0.705971, 
22881,   0.141622,   9.812248,   0.268471,   0.711234,  63.867084,   0.630461,  -0.622168,  -1.191429,   0.617781, -475.500000, -789.000000,  96.000000,  -1.045672,  89.204016, 164.845824,   0.087525,   0.099021,   0.695129,   0.706567, 
22882,   0.115913,   9.745732,   0.115316,   0.908863,  63.481800,   0.564873,  -0.618040,  -1.179663,   0.604999, -474.000000, -786.000000,  91.500000,  -1.034366,  89.201088, 165.480992,   0.083678,   0.095094,   0.695656,   0.707048, 
22883,   0.041202,   9.870648,   0.156025,   0.906422,  62.735060,   0.465516,  -0.621092,  -1.178123,   0.619513, -475.500000, -784.500000,  96.000000,  -1.011209,  89.198744, 166.110320,   0.079937,   0.091129,   0.696177,   0.707501, 
22884,   0.079467,   9.821482,   0.453260,   0.602718,  62.041216,   0.527203,  -0.624878,  -1.188260,   0.623219, -477.000000, -787.500000,  97.500000,  -0.995805,  89.178584, 166.732800,   0.076201,   0.087236,   0.696542,   0.708030, 
22885,   0.161908,   9.705563,   0.254386,   0.988202,  61.754760,   0.541832,  -0.632905,  -1.189162,   0.596389, -481.500000, -789.000000,  88.500000,  -0.981134,  89.156416, 167.350224,   0.072492,   0.083379,   0.696888,   0.708569, 
22886,   0.114048,   9.776198,   0.577422,   0.855351,  61.561008,   0.669404,  -0.640711,  -1.180832,   0.593979, -486.000000, -786.000000,  87.000000,  -0.953194,  89.104544, 167.965648,   0.068890,   0.079430,   0.697012,   0.709234, 
22887,   0.019263,   9.733744,   0.381866,   1.183477,  61.438200,   0.577039,  -0.649576,  -1.183000,   0.599488, -490.500000, -786.000000,  88.500000,  -0.940421,  89.063632, 168.579072,   0.065198,   0.075596,   0.697190,   0.709842, 
22888,   0.195314,   9.940279,   0.825418,   0.506683,  61.027784,   0.612574,  -0.661543,  -1.192048,   0.590554, -496.500000, -789.000000,  85.500000,  -0.926777,  88.999728, 169.190544,   0.061533,   0.071756,   0.697191,   0.710557, 
22889,   0.093289,   9.803669,   0.469023,   0.831875,  59.825340,   0.459414,  -0.661030,  -1.189605,   0.576941, -496.500000, -789.000000,  81.000000,  -0.920392,  88.950168, 169.792928,   0.057865,   0.068025,   0.697257,   0.711171, 
22890,   0.238899,   9.754296,   0.643256,   0.348925,  58.964260,   0.591580,  -0.655421,  -1.192323,   0.571179, -493.500000, -790.500000,  79.500000,  -0.911581,  88.911096, 170.385664,   0.054261,   0.064345,   0.697365,   0.711698, 
22891,   0.169665,   9.650923,   0.243390,   1.197198,  58.180024,   0.503831,  -0.663227,  -1.183992,   0.568768, -498.000000, -787.500000,  78.000000,  -0.916642,  88.876768, 170.969824,   0.050620,   0.060805,   0.697463,   0.712172, 
22892,   0.140215,   9.931336,   0.669788,   0.659188,  57.317180,   0.461300,  -0.673777,  -1.178105,   0.552492, -504.000000, -786.000000,  72.000000,  -0.903579,  88.834856, 171.546560,   0.047136,   0.057197,   0.697520,   0.712681, 
22893,   0.150849,   9.792963,   0.450035,   0.537618,  56.307164,   0.432346,  -0.676333,  -1.176927,   0.543741, -505.500000, -786.000000,  69.000000,  -0.910624,  88.806016, 172.113248,   0.043581,   0.053778,   0.697600,   0.713072, 
22894,   0.064602,   9.775599,   0.372266,   0.639087,  55.289184,   0.494671,  -0.675770,  -1.166064,   0.559085, -505.500000, -781.500000,  73.500000,  -0.892106,  88.783664, 172.669376,   0.040243,   0.050270,   0.697726,   0.713409, 
22895,   0.158573,   9.760847,   0.473153,   0.836153,  54.084828,   0.488983,  -0.673231,  -1.170048,   0.558184, -504.000000, -783.000000,  73.500000,  -0.893408,  88.748864, 173.215168,   0.036851,   0.046943,   0.697743,   0.713807, 
22896,   0.030950,   9.830197,   0.320708,   1.199117,  52.859068,   0.431557,  -0.670708,  -1.176839,   0.547630, -502.500000, -786.000000,  70.500000,  -0.878303,  88.718320, 173.748512,   0.033632,   0.043592,   0.697764,   0.714148, 
22897,   0.163807,   9.976799,   0.992684,  -0.026867,  52.473152,   0.373482,  -0.676162,  -1.176113,   0.539203, -505.500000, -786.000000,  67.500000,  -0.866208,  88.710656, 174.273632,   0.030436,   0.040317,   0.697923,   0.714348, 
22898,   0.175219,   9.822469,   0.348335,   0.977775,  52.155944,   0.259973,  -0.691961,  -1.163072,   0.529267, -514.500000, -781.500000,  63.000000,  -0.866419,  88.675072, 174.794944,   0.027196,   0.037134,   0.697871,   0.714689, 
22899,   0.188053,   9.726810,   0.634923,   0.002411,  52.387320,   0.612094,  -0.701201,  -1.172483,   0.524547, -519.000000, -784.500000,  61.500000,  -0.839864,  88.639720, 175.316096,   0.024117,   0.033786,   0.697820,   0.715016, 
22900,   0.262521,   9.869205,   0.448165,   1.485931,  52.324296,   0.355592,  -0.696310,  -1.184071,   0.517628, -516.000000, -789.000000,  60.000000,  -0.842718,  88.625888, 175.837536,   0.020850,   0.030627,   0.697890,   0.715213, 
22901,  -0.021313,   9.865649,   0.436736,   0.049906,  52.536792,   0.483762,  -0.695951,  -1.179636,   0.518206, -516.000000, -787.500000,  60.000000,  -0.810327,  88.620504, 176.359424,   0.017791,   0.027245,   0.697986,   0.715318, 
22902,   0.185217,   9.981298,   0.716191,   0.763377,  52.183080,   0.249390,  -0.705191,  -1.189047,   0.513485, -520.500000, -790.500000,  58.500000,  -0.829041,  88.561488, 176.883104,   0.014420,   0.024164,   0.697734,   0.715757, 
22903,   0.004673,   9.642968,   0.078483,   0.389685,  52.156336,   0.457537,  -0.718435,  -1.177184,   0.512300, -528.000000, -786.000000,  57.000000,  -0.802332,  88.576784, 177.402480,   0.011336,   0.020836,   0.697939,   0.715722, 
22904,   0.363909,   9.738947,   0.680767,   1.041439,  51.694656,   0.539676,  -0.723326,  -1.165594,   0.519218, -531.000000, -781.500000,  58.500000,  -0.822573,  88.514576, 177.921056,   0.007983,   0.017799,   0.697626,   0.716138, 
22905,   0.077453,   9.860625,   0.381338,   0.466283,  51.404792,   0.421821,  -0.711734,  -1.163788,   0.517923, -525.000000, -781.500000,  58.500000,  -0.809805,  88.509632, 178.434832,   0.004851,   0.014592,   0.697677,   0.716204, 
22906,   0.306460,   9.873908,   0.683972,   0.065023,  51.046436,   0.325938,  -0.719932,  -1.165506,   0.495629, -529.500000, -783.000000,  51.000000,  -0.823564,  88.481208, 178.945936,   0.001575,   0.011565,   0.697551,   0.716386, 
22907,   0.110838,   9.600917,   0.145278,   1.088167,  51.196000,   0.461708,  -0.733550,  -1.160885,   0.484215, -537.000000, -781.500000,  46.500000,  -0.821107,  88.464936, 179.455280,  -0.001592,   0.008449,   0.697491,   0.716482, 
22908,   0.247849,   9.737733,   0.632688,   0.424782,  51.865252,   0.570726,  -0.736432,  -1.158529,   0.494191, -538.500000, -780.000000,  49.500000,  -0.818841,  88.437664, 179.969472,  -0.004792,   0.005306,   0.697362,   0.716644, 
22909,   0.146843,   9.891738,   0.341089,   1.006593,  52.485632,   0.379287,  -0.723952,  -1.147038,   0.489512, -532.500000, -777.000000,  48.000000,  -0.827708,  88.412488, -179.510496,   0.008097,  -0.002199,  -0.697210,  -0.716756, 
22910,   0.183145,   9.937222,   0.589850,   0.037185,  53.466824,   0.464366,  -0.724327,  -1.154280,   0.479282, -532.500000, -780.000000,  45.000000,  -0.815869,  88.400424, -178.982672,   0.011327,   0.001085,  -0.697138,  -0.716787, 
22911,   0.259168,   9.796208,   0.306451,   0.533379,  54.141608,   0.438306,  -0.736994,  -1.169393,   0.478846, -538.500000, -784.500000,  45.000000,  -0.820289,  88.386544, -178.446512,   0.014708,   0.004317,  -0.697044,  -0.716815, 
22912,   0.051365,   9.757017,   0.225203,   0.129382,  54.960636,   0.378783,  -0.742432,  -1.165860,   0.480071, -541.500000, -783.000000,  45.000000,  -0.788793,  88.400848, -177.903280,   0.017913,   0.007821,  -0.697095,  -0.716647, 
22913,   0.190371,   9.632872,  -0.051221,   1.029346,  55.679800,   0.514613,  -0.746063,  -1.177989,   0.469588, -543.000000, -787.500000,  42.000000,  -0.791956,  88.414144, -177.352032,   0.021379,   0.011157,  -0.697141,  -0.716479, 
22914,   0.172003,   9.766883,   0.059093,   0.699639,  56.214548,   0.563997,  -0.757313,  -1.178166,   0.461809, -549.000000, -787.500000,  39.000000,  -0.788207,  88.440400, -176.795296,   0.024833,   0.014573,  -0.697237,  -0.716204, 
22915,   0.170658,  10.001677,  -0.041084,   0.693590,  56.445072,   0.411373,  -0.755554,  -1.161601,   0.445391, -549.000000, -783.000000,  33.000000,  -0.796067,  88.468624, -176.234464,   0.028382,   0.017943,  -0.697335,  -0.715900, 
22916,   0.266109,   9.887305,  -0.076451,   0.252109,  56.980516,   0.546566,  -0.756846,  -1.143496,   0.443488, -550.500000, -777.000000,  31.500000,  -0.800731,  88.512848, -175.670384,   0.031926,   0.021359,  -0.697525,  -0.715490, 
22917,   0.122846,   9.730772,  -0.117166,   0.450938,  57.104304,   0.490036,  -0.765883,  -1.146480,   0.453535, -555.000000, -777.000000,  34.500000,  -0.795897,  88.552296, -175.102768,   0.035431,   0.024855,  -0.697647,  -0.715077, 
22918,   0.109584,   9.857232,  -0.087081,   0.551807,  57.744320,   0.441597,  -0.763889,  -1.158521,   0.446941, -553.500000, -781.500000,  33.000000,  -0.783710,  88.591632, -174.530656,   0.038917,   0.028428,  -0.697766,  -0.714665, 
22919,   0.106274,   9.696473,  -0.068329,   0.756324,  58.473900,   0.561248,  -0.767179,  -1.169021,   0.427382, -555.000000, -786.000000,  27.000000,  -0.770430,  88.626480, -173.952176,   0.042433,   0.032046,  -0.697820,  -0.714245, 
22920,   0.157029,   9.936094,  -0.017034,   0.416701,  59.719632,   0.475203,  -0.777712,  -1.160326,   0.420759, -561.000000, -783.000000,  24.000000,  -0.760082,  88.666760, -173.363568,   0.046026,   0.035710,  -0.697893,  -0.713775, 
22921,   0.217658,   9.713677,  -0.028537,   0.528442,  60.627576,   0.640516,  -0.778241,  -1.165576,   0.424718, -561.000000, -784.500000,  25.500000,  -0.759985,  88.693736, -172.763456,   0.049754,   0.039377,  -0.697867,  -0.713364, 
22922,   0.163414,   9.830436,  -0.094370,   0.554594,  61.498164,   0.421292,  -0.771557,  -1.154988,   0.420688, -558.000000, -781.500000,  24.000000,  -0.761689,  88.731496, -172.155088,   0.053536,   0.043088,  -0.697877,  -0.712851, 
22923,   0.352422,   9.787059,  -0.061122,   0.820011,  62.316828,   0.595413,  -0.784613,  -1.139504,   0.424618, -565.500000, -775.500000,  24.000000,  -0.778421,  88.751872, -171.538576,   0.057465,   0.046749,  -0.697780,  -0.712432, 
22924,   0.151399,   9.893816,  -0.149891,   0.698639,  63.055032,   0.511460,  -0.794212,  -1.153350,   0.419320, -570.000000, -780.000000,  22.500000,  -0.776128,  88.793832, -170.914672,   0.061309,   0.050583,  -0.697761,  -0.711841, 
22925,   0.167572,   9.931820,   0.033795,   0.722928,  63.775532,   0.515825,  -0.794929,  -1.162221,   0.418165, -570.000000, -783.000000,  22.500000,  -0.781714,  88.809608, -170.283040,   0.065259,   0.054403,  -0.697581,  -0.711401, 
22926,   0.010186,   9.812603,  -0.022344,   0.349048,  65.057732,   0.586705,  -0.792623,  -1.137600,   0.407440, -570.000000, -775.500000,  18.000000,  -0.756750,  88.840816, -169.641504,   0.069073,   0.058481,  -0.697437,  -0.710841, 
22927,   0.039056,   9.896847,   0.053469,   0.740405,  66.426812,   0.597934,  -0.797752,  -1.138052,   0.380285, -573.000000, -777.000000,   9.000000,  -0.746988,  88.856064, -168.986080,   0.073070,   0.062540,  -0.697185,  -0.710352, 
22928,   0.065737,   9.702373,   0.026388,   0.406366,  68.260304,   0.644235,  -0.797255,  -1.138414,   0.357020, -573.000000, -778.500000,   1.500000,  -0.725632,  88.881896, -168.314976,   0.077084,   0.066771,  -0.696950,  -0.709764, 
22929,  -0.090741,   9.839694,  -0.070881,   0.981013,  69.913184,   0.566794,  -0.805591,  -1.135333,   0.358570, -577.500000, -777.000000,   1.500000,  -0.698359,  88.904472, -167.625152,   0.081176,   0.071151,  -0.696660,  -0.709171, 
22930,   0.038144,   9.906408,  -0.000825,   0.760582,  71.969496,   0.748849,  -0.815189,  -1.149180,   0.353272, -582.000000, -781.500000,   0.000000,  -0.680626,  88.927080, -166.917872,   0.085428,   0.075575,  -0.696332,  -0.708529, 
22931,   0.013751,   9.740638,  -0.100268,   0.751911,  73.686008,   0.674815,  -0.815393,  -1.155608,   0.338504, -582.000000, -784.500000,  -4.500000,  -0.657752,  88.964800, -166.192000,   0.089750,   0.080156,  -0.696059,  -0.707765, 
22932,   0.072954,   9.795772,  -0.005953,   1.036587,  75.544240,   0.615233,  -0.813959,  -1.137865,   0.340815, -582.000000, -778.500000,  -4.500000,  -0.638203,  88.984392, -165.447040,   0.094216,   0.084816,  -0.695625,  -0.707059, 
22933,  -0.077197,   9.792363,  -0.071992,   0.708973,  77.164392,   0.692627,  -0.819943,  -1.142389,   0.336347, -585.000000, -780.000000,  -6.000000,  -0.606808,  89.017200, -164.686048,   0.098694,   0.089657,  -0.695230,  -0.706252, 
22934,   0.041943,   9.775866,  -0.003509,   1.253873,  78.629200,   0.743994,  -0.837364,  -1.150711,   0.318986, -594.000000, -783.000000, -12.000000,  -0.602515,  89.027640, -163.908336,   0.103449,   0.094408,  -0.694658,  -0.705499, 
22935,   0.195291,   9.929748,   0.133738,   0.546839,  79.887208,   0.765325,  -0.836134,  -1.139397,   0.306529, -594.000000, -780.000000, -16.500000,  -0.602768,  89.045032, -163.117760,   0.108303,   0.099215,  -0.694110,  -0.704675, 
22936,   0.190776,   9.734243,   0.021702,   0.739046,  80.591048,   0.680347,  -0.832177,  -1.128446,   0.298285, -592.500000, -777.000000, -19.500000,  -0.607306,  89.066648, -162.317968,   0.113224,   0.104048,  -0.693524,  -0.703754, 
22937,   0.261623,   9.748968,  -0.036447,   0.962451,  81.095872,   0.730457,  -0.835075,  -1.128897,   0.298609, -594.000000, -777.000000, -19.500000,  -0.619530,  89.087536, -161.511456,   0.118229,   0.108874,  -0.692921,  -0.702807, 
22938,   0.230446,   9.757548,   0.113817,   1.193843,  81.048896,   0.732171,  -0.830370,  -1.144107,   0.286576, -591.000000, -783.000000, -22.500000,  -0.636567,  89.085024, -160.701904,   0.123296,   0.113659,  -0.692132,  -0.701947, 
22939,   0.191125,   9.930958,   0.128396,   0.607153,  80.758296,   0.659624,  -0.838397,  -1.145010,   0.259745, -595.500000, -784.500000, -31.500000,  -0.647257,  89.099712, -159.894384,   0.128288,   0.118484,  -0.691414,  -0.700960, 
22940,   0.259414,   9.715064,   0.017480,   0.704424,  80.180032,   0.695871,  -0.854026,  -1.131154,   0.245272, -604.500000, -780.000000, -37.500000,  -0.665689,  89.107600, -159.091600,   0.133299,   0.123222,  -0.690641,  -0.699980, 
22941,   0.178943,   9.767338,   0.116981,   0.813982,  79.103488,   0.710829,  -0.851845,  -1.139574,   0.243793, -603.000000, -783.000000, -37.500000,  -0.682287,  89.118544, -158.296880,   0.138236,   0.127920,  -0.689848,  -0.698946, 
22942,   0.357094,   9.720289,   0.101096,   1.110858,  78.060192,   0.740045,  -0.857674,  -1.146090,   0.225136, -606.000000, -786.000000, -43.500000,  -0.705951,  89.120896, -157.513072,   0.143155,   0.132496,  -0.689011,  -0.697953, 
22943,   0.387723,   9.859753,   0.174666,   0.454236,  76.577560,   0.635880,  -0.856785,  -1.136404,   0.221753, -606.000000, -783.000000, -45.000000,  -0.730698,  89.134080, -156.741376,   0.147982,   0.136996,  -0.688201,  -0.696850, 
22944,   0.486524,   9.762213,   0.154549,   0.620482,  74.771544,   0.668479,  -0.853375,  -1.133509,   0.207817, -604.500000, -783.000000, -49.500000,  -0.770699,  89.133384, -155.986112,   0.152814,   0.141286,  -0.687339,  -0.695821, 
22945,   0.402492,   9.655922,   0.119752,   1.013593,  72.369152,   0.732628,  -0.852503,  -1.126630,   0.194782, -604.500000, -781.500000, -54.000000,  -0.803642,  89.126504, -155.252720,   0.157468,   0.145471,  -0.686412,  -0.694816, 
22946,   0.379976,   9.745642,   0.258137,   0.591969,  69.560472,   0.614261,  -0.858829,  -1.132784,   0.199390, -607.500000, -783.000000, -52.500000,  -0.853195,  89.115032, -154.544208,   0.162073,   0.149397,  -0.685504,  -0.693837, 
22947,   0.493356,   9.760667,   0.158861,   1.126619,  66.417404,   0.671645,  -0.867710,  -1.137759,   0.195247, -612.000000, -784.500000, -54.000000,  -0.898838,  89.097976, -153.867280,   0.166462,   0.153141,  -0.684562,  -0.692897, 
22948,   0.328236,   9.836724,   0.259387,   0.512917,  63.100256,   0.575973,  -0.865967,  -1.124001,   0.169177, -612.000000, -781.500000, -63.000000,  -0.921032,  89.086592, -153.221712,   0.170513,   0.156845,  -0.683661,  -0.691995, 
22949,   0.321334,   9.820907,   0.235522,   0.625846,  60.048908,   0.596496,  -0.863428,  -1.127985,   0.168275, -610.500000, -783.000000, -63.000000,  -0.946166,  89.069208, -152.607920,   0.174388,   0.160324,  -0.682732,  -0.691127, 
22950,   0.201636,   9.834168,   0.214376,   0.453336,  57.058884,   0.498925,  -0.871592,  -1.124090,   0.165288, -615.000000, -781.500000, -64.500000,  -0.956680,  89.063984, -152.024640,   0.177975,   0.163728,  -0.681899,  -0.690254, 
22951,   0.125745,   9.721956,   0.168488,   0.539461,  54.782848,   0.589013,  -0.870191,  -1.111961,   0.148292, -615.000000, -778.500000, -70.500000,  -0.957943,  89.064320, -151.468272,   0.181330,   0.167028,  -0.681094,  -0.689372, 
22952,   0.149011,   9.868726,   0.107515,   0.656126,  52.859584,   0.480703,  -0.873977,  -1.122097,   0.151999, -616.500000, -781.500000, -69.000000,  -0.947541,  89.061376, -150.932736,   0.184492,   0.170267,  -0.680272,  -0.688550, 
22953,   0.079201,   9.854642,   0.416101,   0.211679,  51.144856,   0.503361,  -0.878902,  -1.116121,   0.139612, -619.500000, -780.000000, -73.500000,  -0.932590,  89.046024, -150.414032,   0.187545,   0.173412,  -0.679388,  -0.687832, 
22954,   0.015128,   9.646738,   0.006694,   0.795142,  49.925428,   0.430104,  -0.869865,  -1.113138,   0.129565, -615.000000, -780.000000, -76.500000,  -0.905672,  89.050008, -149.910240,   0.190399,   0.176563,  -0.678590,  -0.687011, 
22955,   0.003318,   9.979716,   0.374899,   0.411856,  48.786404,   0.376635,  -0.866267,  -1.106622,   0.120743, -613.500000, -778.500000, -79.500000,  -0.882067,  89.025656, -149.418384,   0.193246,   0.179576,  -0.677645,  -0.686373, 
22956,   0.075069,   9.786100,   0.351367,   0.478964,  47.277052,   0.395040,  -0.883876,  -1.118565,   0.098267, -622.500000, -783.000000, -87.000000,  -0.869046,  89.011040, -148.940112,   0.196057,   0.182457,  -0.676787,  -0.685675, 
22957,  -0.047699,   9.808305,   0.190270,   0.273621,  46.091224,   0.353337,  -0.884405,  -1.123815,   0.102227, -622.500000, -784.500000, -85.500000,  -0.835210,  89.011784, -148.475216,   0.198635,   0.185403,  -0.675982,  -0.684918, 
22958,  -0.133761,   9.742619,   0.180338,   0.546133,  44.809976,   0.421571,  -0.886382,  -1.108968,   0.118474, -624.000000, -778.500000, -81.000000,  -0.812996,  89.000072, -148.021712,   0.201234,   0.188190,  -0.675138,  -0.684237, 
22959,  -0.038451,   9.888904,   0.363313,   0.610362,  43.670860,   0.357559,  -0.894034,  -1.102629,   0.101873, -628.500000, -777.000000, -87.000000,  -0.792610,  88.973576, -147.580688,   0.203793,   0.190864,  -0.674224,  -0.683656, 
22960,  -0.075920,   9.756507,   0.141631,   0.090695,  42.346372,   0.310897,  -0.889159,  -1.117025,   0.085303, -625.500000, -783.000000, -91.500000,  -0.767499,  88.984064, -147.152832,   0.206176,   0.193547,  -0.673516,  -0.682864, 
22961,   0.089149,   9.847091,   0.325284,   0.756391,  41.073128,   0.382638,  -0.892619,  -1.128339,   0.070282, -627.000000, -787.500000, -96.000000,  -0.755585,  88.954240, -146.736816,   0.208635,   0.196008,  -0.672611,  -0.682308, 
22962,  -0.090271,   9.823208,   0.212980,   0.187482,  39.980060,   0.339545,  -0.894988,  -1.123541,   0.066646, -628.500000, -786.000000, -97.500000,  -0.725283,  88.956584, -146.334304,   0.210852,   0.198557,  -0.671888,  -0.681621, 
22963,  -0.092614,   9.793758,   0.165729,   0.727422,  38.991028,   0.267001,  -0.882662,  -1.110057,   0.076157, -622.500000, -781.500000, -94.500000,  -0.706315,  88.934928, -145.941104,   0.213116,   0.200933,  -0.671034,  -0.681049, 
22964,  -0.099876,   9.820963,   0.487923,   0.111009,  38.316508,   0.291741,  -0.885560,  -1.110509,   0.076482, -624.000000, -781.500000, -94.500000,  -0.680879,  88.917600, -145.555984,   0.215285,   0.203304,  -0.670203,  -0.680474, 
22965,  -0.177040,   9.844586,   0.345725,   0.700141,  37.986412,   0.370692,  -0.889613,  -1.097653,   0.051059, -627.000000, -778.500000, -103.500000,  -0.646603,  88.886744, -145.176768,   0.217393,   0.205668,  -0.669285,  -0.680006, 
22966,  -0.179706,   9.787034,   0.476092,   0.144189,  38.200872,   0.307458,  -0.881123,  -1.102726,   0.035320, -622.500000, -781.500000, -108.000000,  -0.608735,  88.864672, -144.797600,   0.219464,   0.208067,  -0.668408,  -0.679491, 
22967,  -0.210048,   9.746901,   0.514789,   0.525335,  38.538116,   0.326351,  -0.882524,  -1.114855,   0.052315, -622.500000, -784.500000, -102.000000,  -0.575887,  88.824688, -144.414848,   0.221612,   0.210414,  -0.667403,  -0.679041, 
22968,  -0.176927,   9.751552,   0.483761,   0.447295,  39.329992,   0.322154,  -0.894475,  -1.121097,   0.053034, -628.500000, -786.000000, -102.000000,  -0.541424,  88.796088, -144.027264,   0.223761,   0.212819,  -0.666452,  -0.678520, 
22969,  -0.160255,   9.812171,   0.580123,   0.765807,  40.281192,   0.342563,  -0.900692,  -1.097016,   0.038743, -633.000000, -778.500000, -108.000000,  -0.510422,  88.744048, -143.631072,   0.226027,   0.215205,  -0.665353,  -0.678112, 
22970,  -0.179196,   9.855392,   0.577061,   0.346420,  41.296412,   0.373386,  -0.888025,  -1.081903,   0.039179, -627.000000, -774.000000, -108.000000,  -0.480612,  88.713512, -143.225008,   0.228314,   0.217678,  -0.664348,  -0.677543, 
22971,  -0.183804,   9.822804,   0.633070,   0.323625,  42.452524,   0.297943,  -0.898699,  -1.109057,   0.032149, -631.500000, -783.000000, -109.500000,  -0.444825,  88.676440, -142.806992,   0.230647,   0.220236,  -0.663256,  -0.676986, 
22972,  -0.217957,   9.720938,   0.511172,   0.466178,  43.848980,   0.333026,  -0.901067,  -1.104258,   0.028513, -633.000000, -781.500000, -111.000000,  -0.405167,  88.654704, -142.376592,   0.233003,   0.222917,  -0.662221,  -0.676324, 
22973,  -0.176101,   9.824426,   0.381128,   0.609521,  45.325508,   0.369541,  -0.888245,  -1.091137,   0.014760, -627.000000, -778.500000, -115.500000,  -0.373921,  88.627224, -141.431648,   0.238447,   0.228497,  -0.660133,  -0.674600, 
22974,  -0.123930,   9.902395,   0.602881,   0.304919,  46.651592,   0.354934,  -0.880130,  -1.103453,  -0.011209, -622.500000, -784.500000, -123.000000,  -0.347008,  88.593952, -139.989184,   0.246835,   0.236875,  -0.656954,  -0.671794, 
22975,  -0.059693,   9.777180,   0.429177,   0.518564,  48.288008,   0.377659,  -0.886318,  -1.114404,  -0.030444, -625.500000, -789.000000, -129.000000,  -0.326379,  88.572008, -138.521040,   0.255351,   0.245344,  -0.653692,  -0.668746, 
22976,  -0.035240,   9.765826,   0.442925,   0.654503,  49.889240,   0.442417,  -0.896989,  -1.100912,  -0.013225, -631.500000, -783.000000, -124.500000,  -0.304136,  88.547656, -137.064160,   0.263760,   0.253708,  -0.650327,  -0.665633, 
22977,   0.055685,   9.818710,   0.406458,   0.621695,  51.784124,   0.449612,  -0.892127,  -1.077468,  -0.015199, -630.000000, -775.500000, -126.000000,  -0.294748,  88.532480, -136.557584,   0.266684,   0.256603,  -0.649097,  -0.664575, 
22978,  -0.047783,   9.786532,   0.457600,   0.484280,  53.519060,   0.444111,  -0.886877,  -1.084621,  -0.021540, -627.000000, -778.500000, -127.500000,  -0.283052,  88.516192, -136.032688,   0.269694,   0.259601,  -0.647788,  -0.663461, 
22979,   0.080574,   9.797264,   0.445580,   0.749695,  55.182100,   0.476581,  -0.888295,  -1.099557,  -0.014197, -627.000000, -783.000000, -124.500000,  -0.278853,  88.500936, -134.575856,   0.278119,   0.267802,  -0.644337,  -0.660073, 
22980,  -0.009884,   9.853913,   0.367633,   0.540998,  56.659324,   0.491825,  -0.895946,  -1.093218,  -0.030797, -631.500000, -781.500000, -130.500000,  -0.264165,  88.497000, -133.096576,   0.286543,   0.276171,  -0.640766,  -0.656485, 
22981,  -0.020432,   9.741773,   0.317314,   0.543749,  57.816044,   0.547218,  -0.898519,  -1.094847,  -0.049201, -633.000000, -783.000000, -136.500000,  -0.255284,  88.489760, -131.609224,   0.295008,   0.284496,  -0.637063,  -0.652772, 
22982,   0.054392,   9.782372,   0.248260,   0.958574,  58.953800,   0.563299,  -0.893252,  -1.099194,  -0.045889, -630.000000, -784.500000, -135.000000,  -0.247882,  88.482464, -130.145048,   0.303302,   0.292635,  -0.633315,  -0.649009, 
22983,   0.113698,   9.820529,   0.572728,   0.287970,  59.738020,   0.535033,  -0.895279,  -1.092767,  -0.058600, -631.500000, -783.000000, -139.500000,  -0.245135,  88.475888, -128.680328,   0.311575,   0.300704,  -0.629478,  -0.645122, 
22984,   0.065872,   9.644979,   0.064710,   1.280402,  60.243104,   0.598454,  -0.893911,  -1.086251,  -0.094900, -631.500000, -783.000000, -151.500000,  -0.236487,  88.471192, -127.192744,   0.319889,   0.308885,  -0.625472,  -0.641072, 
22985,   0.066403,   9.961919,   0.591357,   0.183874,  60.485020,   0.442722,  -0.888286,  -1.086162,  -0.091010, -628.500000, -783.000000, -150.000000,  -0.235279,  88.454304, -126.158544,   0.325702,   0.314477,  -0.622563,  -0.638256, 
22986,   0.060891,   9.600698,   0.055201,   1.463945,  60.571956,   0.623724,  -0.903289,  -1.090863,  -0.075778, -636.000000, -783.000000, -145.500000,  -0.231611,  88.448944, -125.556208,   0.329048,   0.317750,  -0.620861,  -0.636574, 
22987,   0.045031,   9.927424,   0.686978,   0.281635,  60.546588,   0.543526,  -0.905674,  -1.088871,  -0.089066, -637.500000, -783.000000, -150.000000,  -0.228096,  88.433048, -124.952320,   0.332425,   0.320993,  -0.619083,  -0.634931, 
22988,   0.137459,   9.672263,   0.172082,   1.144280,  60.367836,   0.573062,  -0.896638,  -1.085887,  -0.099114, -633.000000, -783.000000, -153.000000,  -0.225148,  88.427280, -124.349656,   0.335757,   0.324241,  -0.617340,  -0.633208, 
22989,   0.127531,   9.871730,   0.515489,   0.434157,  59.739088,   0.422557,  -0.895595,  -1.078194,  -0.116686, -633.000000, -781.500000, -159.000000,  -0.228642,  88.412032, -123.750616,   0.339131,   0.327405,  -0.615574,  -0.631527, 
22990,   0.246951,   9.622804,   0.154570,   0.888505,  58.820688,   0.594974,  -0.894740,  -1.074121,  -0.139374, -633.000000, -781.500000, -166.500000,  -0.243846,  88.417400, -123.159968,   0.342441,   0.330500,  -0.613941,  -0.629686, 
22991,   0.312037,   9.888583,   0.370515,   0.544634,  57.793848,   0.458837,  -0.903279,  -1.077468,  -0.152592, -637.500000, -783.000000, -171.000000,  -0.264502,  88.416304, -122.578096,   0.345750,   0.333499,  -0.612315,  -0.627888, 
22992,   0.349921,   9.810020,  -0.010370,   0.857522,  56.552304,   0.580440,  -0.911428,  -1.070766,  -0.145927, -642.000000, -780.000000, -169.500000,  -0.290827,  88.430592, -122.007808,   0.348967,   0.336440,  -0.610803,  -0.626003, 
22993,   0.368973,   9.780132,   0.378734,   0.564513,  55.176660,   0.489917,  -0.908888,  -1.074750,  -0.146829, -640.500000, -781.500000, -169.500000,  -0.318314,  88.433432, -121.450160,   0.352145,   0.339265,  -0.609255,  -0.624198, 
22994,   0.334536,   9.748000,   0.008357,   0.803140,  53.643156,   0.502046,  -0.899152,  -1.065702,  -0.165373, -636.000000, -780.000000, -175.500000,  -0.346944,  88.458008, -120.907632,   0.355180,   0.342072,  -0.607873,  -0.622317, 
22995,   0.331863,   9.886755,   0.463514,   0.554259,  51.815928,   0.453302,  -0.892297,  -1.054299,  -0.173941, -633.000000, -777.000000, -178.500000,  -0.378442,  88.440808, -120.381872,   0.358243,   0.344626,  -0.606291,  -0.620665, 
22996,   0.293090,   9.780303,   0.205185,   0.532997,  49.746816,   0.368924,  -0.907333,  -1.064613,  -0.178014, -640.500000, -780.000000, -180.000000,  -0.400357,  88.452488, -119.876360,   0.361058,   0.347216,  -0.604898,  -0.618952, 
22997,   0.254039,   9.884428,   0.471850,   0.591409,  47.846248,   0.421863,  -0.904622,  -1.067782,  -0.183453, -639.000000, -781.500000, -181.500000,  -0.413302,  88.429288, -119.390304,   0.363821,   0.349637,  -0.603340,  -0.617501, 
22998,   0.151122,   9.811566,   0.227164,   0.545294,  45.770216,   0.324517,  -0.894869,  -1.055928,  -0.192345, -634.500000, -778.500000, -184.500000,  -0.419222,  88.426464, -118.924160,   0.366366,   0.352044,  -0.601909,  -0.616005, 
22999,   0.095736,   9.798551,   0.390874,   0.380129,  44.233148,   0.424966,  -0.898826,  -1.066879,  -0.184101, -636.000000, -781.500000, -181.500000,  -0.417990,  88.418296, -118.475952,   0.368792,   0.354377,  -0.600482,  -0.614616, 
23000,   0.062999,   9.763814,   0.039983,   0.533031,  42.790152,   0.314951,  -0.896287,  -1.070863,  -0.185002, -634.500000, -783.000000, -181.500000,  -0.410551,  88.445448, -118.043432,   0.370991,   0.356773,  -0.599268,  -0.613108, 
23001,   0.072935,   9.902096,   0.123758,   0.358504,  41.267832,   0.395252,  -0.898655,  -1.066065,  -0.188638, -636.000000, -781.500000, -183.000000,  -0.399610,  88.465048, -117.625504,   0.373102,   0.359074,  -0.598025,  -0.611676, 
23002,   0.062157,   9.895378,  -0.159998,   0.386325,  40.103800,   0.274310,  -0.894885,  -1.058734,  -0.201997, -634.500000, -780.000000, -187.500000,  -0.377958,  88.530416, -117.221480,   0.374939,   0.361511,  -0.597035,  -0.610087, 
23003,  -0.190762,   9.718892,  -0.212496,   0.219025,  39.488312,   0.253796,  -0.903408,  -1.059274,  -0.205563, -639.000000, -780.000000, -189.000000,  -0.336242,  88.603760, -116.826624,   0.376596,   0.364036,  -0.596049,  -0.608554, 
23004,  -0.059909,   9.781227,  -0.474953,   1.096912,  39.016928,   0.280234,  -0.905948,  -1.055290,  -0.204661, -640.500000, -778.500000, -189.000000,  -0.311057,  88.682448, -116.436688,   0.378279,   0.366452,  -0.595136,  -0.606936, 
23005,   0.016700,   9.968459,   0.149089,  -0.358014,  39.022956,   0.223699,  -0.890978,  -1.056202,  -0.239198, -633.000000, -781.500000, -199.500000,  -0.303971,  88.690288, -116.048992,   0.380266,   0.368525,  -0.593906,  -0.605631, 
23006,   0.002130,   9.596044,  -0.491142,   0.920250,  39.381860,   0.241257,  -0.889252,  -1.045251,  -0.274921, -633.000000, -780.000000, -211.500000,  -0.280310,  88.767536, -115.659304,   0.381952,   0.370926,  -0.592980,  -0.604013, 
23007,  -0.056235,   9.923699,   0.086089,   0.345346,  39.915092,   0.270506,  -0.898475,  -1.051855,  -0.269989, -637.500000, -781.500000, -210.000000,  -0.259906,  88.806552, -115.264784,   0.383801,   0.373207,  -0.591843,  -0.602566, 
23008,   0.004902,   9.791776,   0.064946,   0.490729,  40.246052,   0.304096,  -0.905501,  -1.064073,  -0.256884, -640.500000, -784.500000, -205.500000,  -0.239994,  88.834736, -114.865944,   0.385696,   0.375459,  -0.590613,  -0.601138, 
23009,  -0.147315,   9.734938,   0.103642,   0.490232,  40.673892,   0.277848,  -0.902432,  -1.062807,  -0.261745, -639.000000, -784.500000, -207.000000,  -0.221728,  88.859496, -114.463520,   0.387629,   0.377710,  -0.589358,  -0.599712, 
23010,  -0.036692,   9.857882,   0.198649,   0.807023,  40.984100,   0.390317,  -0.905159,  -1.062444,  -0.265959, -640.500000, -784.500000, -208.500000,  -0.205754,  88.853952, -114.056928,   0.389695,   0.379868,  -0.587938,  -0.598422, 
23011,  -0.067971,   9.852007,   0.248575,   0.252536,  41.338652,   0.279304,  -0.906640,  -1.047960,  -0.272977, -642.000000, -780.000000, -211.500000,  -0.188823,  88.861384, -113.647480,   0.391718,   0.382079,  -0.586556,  -0.597042, 
23012,   0.005230,   9.775151,   0.107429,   0.402364,  41.713492,   0.198650,  -0.901577,  -1.058735,  -0.284433, -639.000000, -784.500000, -214.500000,  -0.182164,  88.872168, -113.234360,   0.393795,   0.384260,  -0.585204,  -0.595589, 
23013,   0.073439,   9.693203,   0.172800,   0.725347,  42.274040,   0.368821,  -0.893258,  -1.064622,  -0.295635, -634.500000, -787.500000, -217.500000,  -0.180576,  88.870872, -112.816384,   0.395964,   0.386398,  -0.583790,  -0.594164, 
23014,  -0.024449,   9.770165,   0.310221,   0.413308,  42.834724,   0.279612,  -0.891465,  -1.042444,  -0.292747, -634.500000, -780.000000, -217.500000,  -0.174451,  88.874576, -112.392472,   0.398118,   0.388602,  -0.582359,  -0.592702, 
