Standard output of YIS Manager:
  TID,     AccX,     AccY,     AccZ,    AngVX,    AngVY,    AngVZ,     MagX,     MagY,     MagZ, NormMagX, NormMagY, NormMagZ,    Pitch,     Roll,      Yaw,       q0,       q1,       q2,       q3, 
23721,   0.154644,   9.804363,  -0.038387,  -0.093584,   0.170464,  -0.109747,   0.203173,  -0.959310,  -0.325606, -63.000000, -804.000000, -184.500000,  -0.946129,  90.011936,  42.808724,   0.656091,   0.660489,   0.252631,   0.263447, 
23722,   0.167728,   9.781862,  -0.041846,  -0.187192,   0.268889,  -0.039407,   0.204249,  -0.946004,  -0.323874, -63.000000, -799.500000, -184.500000,  -0.945392,  90.014912,  42.718264,   0.656283,   0.660704,   0.252120,   0.262919, 
23723,   0.137931,   9.816253,  -0.039684,  -0.222125,   0.206604,  -0.058304,   0.202256,  -0.933963,  -0.317280, -64.500000, -795.000000, -183.000000,  -0.942953,  90.020336,  42.631292,   0.656458,   0.660921,   0.251646,   0.262395, 
23724,   0.133619,   9.780588,   0.081832,  -0.067940,   0.161599,  -0.092217,   0.209515,  -0.950350,  -0.320562, -60.000000, -801.000000, -183.000000,  -0.941596,  90.012352,  42.553860,   0.656685,   0.661044,   0.251189,   0.261962, 
23725,   0.157235,   9.792388,   0.040115,  -0.016547,   0.161882,  -0.013319,   0.208440,  -0.963657,  -0.322294, -60.000000, -805.500000, -183.000000,  -0.941710,  90.004944,  42.478224,   0.656902,   0.661169,   0.250736,   0.261546, 
23726,   0.129391,   9.819172,  -0.001975,  -0.034162,   0.099115,  -0.119063,   0.199746,  -0.965011,  -0.321322, -64.500000, -805.500000, -183.000000,  -0.940315,  90.006944,  42.394888,   0.657086,   0.661361,   0.250268,   0.261056, 
23727,   0.173876,   9.812564,  -0.041189,  -0.128485,   0.126415,  -0.041291,   0.209173,  -0.951980,  -0.311487, -60.000000, -801.000000, -180.000000,  -0.939224,  90.011568,  42.316896,   0.657241,   0.661558,   0.249835,   0.260594, 
23728,   0.192166,   9.811778,   0.023864,  -0.136079,   0.224204,  -0.057043,   0.203019,  -0.957318,  -0.311416, -63.000000, -802.500000, -180.000000,  -0.946382,  90.010640,  42.250732,   0.657382,   0.661714,   0.249411,   0.260258, 
23729,   0.191616,   9.789405,   0.016500,  -0.092899,   0.148883,  -0.077246,   0.197736,  -0.955778,  -0.324381, -66.000000, -802.500000, -184.500000,  -0.948058,  90.007152,  42.172052,   0.657579,   0.661871,   0.248940,   0.259824, 
23730,   0.147699,   9.785964,   0.020564,  -0.076994,   0.117225,  -0.075699,   0.195571,  -0.944551,  -0.313249, -67.500000, -798.000000, -181.500000,  -0.949645,  90.006576,  42.087752,   0.657767,   0.662051,   0.248441,   0.259350, 
23731,   0.152266,   9.797457,   0.009917,  -0.114889,   0.235762,  -0.106888,   0.201009,  -0.948084,  -0.314475, -64.500000, -799.500000, -181.500000,  -0.947373,  90.002888,  42.011076,   0.657965,   0.662189,   0.248002,   0.258904, 
23732,   0.128775,   9.817398,  -0.000210,  -0.111152,   0.135051,  -0.084462,   0.214065,  -0.963568,  -0.318405, -57.000000, -805.500000, -181.500000,  -0.945048,  90.005024,  41.941216,   0.658114,   0.662346,   0.247616,   0.258484, 
23733,   0.174705,   9.799490,  -0.002503,  -0.085083,   0.172747,  -0.045792,   0.214627,  -0.952706,  -0.303060, -57.000000, -801.000000, -177.000000,  -0.947231,  90.004704,  41.886988,   0.658232,   0.662464,   0.247289,   0.258185, 
23734,   0.168806,   9.790650,  -0.004061,  -0.101821,   0.206068,  -0.109206,   0.212259,  -0.947907,  -0.306696, -58.500000, -799.500000, -178.500000,  -0.947008,  90.005240,  41.837356,   0.658340,   0.662573,   0.247004,   0.257897, 
23735,   0.184091,   9.806179,   0.051603,   0.014260,   0.180313,  -0.067771,   0.215295,  -0.952254,  -0.330862, -57.000000, -802.500000, -186.000000,  -0.951141,  89.996336,  41.778976,   0.658513,   0.662656,   0.246622,   0.257604, 
23736,   0.160660,   9.817323,  -0.028301,  -0.016840,   0.126119,  -0.048769,   0.218568,  -0.944560,  -0.320956, -55.500000, -799.500000, -183.000000,  -0.951442,  90.001192,  41.711920,   0.658634,   0.662828,   0.246243,   0.257210, 
23737,   0.185318,   9.803620,   0.011742,  -0.192308,   0.133369,  -0.063145,   0.209344,  -0.951165,  -0.316024, -60.000000, -801.000000, -181.500000,  -0.954720,  90.001920,  41.651604,   0.658757,   0.662968,   0.245876,   0.256881, 
23738,   0.195274,   9.775845,  -0.044005,  -0.085756,   0.099452,  -0.076111,   0.200463,  -0.956140,  -0.320167, -64.500000, -802.500000, -183.000000,  -0.958961,  90.002776,  41.582376,   0.658897,   0.663130,   0.245453,   0.256505, 
23739,   0.192650,   9.815821,  -0.066883,  -0.192866,   0.078054,  -0.056397,   0.206104,  -0.953246,  -0.306625, -61.500000, -801.000000, -178.500000,  -0.961094,  90.009192,  41.514356,   0.659007,   0.663316,   0.245061,   0.256112, 
23740,   0.162185,   9.805997,   0.020686,  -0.240440,   0.081830,  -0.112940,   0.211045,  -0.956415,  -0.284585, -58.500000, -801.000000, -171.000000,  -0.955874,  90.008672,  41.469564,   0.659122,   0.663398,   0.244831,   0.255825, 
23741,   0.215504,   9.794215,  -0.080367,  -0.177875,   0.038126,  -0.126565,   0.208131,  -0.959673,  -0.293914, -60.000000, -802.500000, -174.000000,  -0.957920,  90.010424,  41.434380,   0.659185,   0.663488,   0.244620,   0.255631, 
23742,   0.199993,   9.824398,  -0.106495,  -0.362034,  -0.069490,  -0.186591,   0.208081,  -0.968092,  -0.322872, -60.000000, -807.000000, -183.000000,  -0.961333,  90.021632,  41.375820,   0.659243,   0.663684,   0.244285,   0.255290, 
23743,   0.084330,   9.838790,   0.244980,  -0.399790,  -0.032978,  -0.215368,   0.207210,  -0.974971,  -0.309836, -60.000000, -808.500000, -178.500000,  -0.956685,  89.997392,  41.316780,   0.659527,   0.663662,   0.243917,   0.254975, 
23744,   0.060559,   9.783010,   0.209355,   0.104633,   0.250308,  -0.062630,   0.204687,  -0.968181,  -0.299283, -61.500000, -805.500000, -175.500000,  -0.944448,  89.966440,  41.270100,   0.659836,   0.663556,   0.243648,   0.254702, 
23745,   0.196208,   9.800532,  -0.045883,   0.228671,   0.259187,  -0.009855,   0.205901,  -0.959673,  -0.321393, -61.500000, -804.000000, -183.000000,  -0.944895,  89.967184,  41.214156,   0.659956,   0.663681,   0.243324,   0.254381, 
23746,   0.200371,   9.829021,  -0.050423,   0.077529,   0.117011,  -0.047892,   0.202644,  -0.964560,  -0.321646, -63.000000, -805.500000, -183.000000,  -0.950844,  89.978160,  41.144740,   0.660034,   0.663905,   0.242912,   0.253993, 
23747,   0.106639,   9.831261,   0.007502,   0.020673,   0.061837,  -0.038861,   0.202302,  -0.966189,  -0.312571, -63.000000, -805.500000, -180.000000,  -0.946647,  89.981352,  41.076144,   0.660178,   0.664061,   0.242547,   0.253567, 
23748,   0.179574,   9.805932,   0.018455,   0.120481,   0.135194,   0.048636,   0.207194,  -0.977778,  -0.319489, -60.000000, -810.000000, -181.500000,  -0.947045,  89.981408,  41.013864,   0.660316,   0.664196,   0.242184,   0.253211, 
23749,   0.241915,   9.778516,  -0.169361,   0.051648,   0.117438,   0.024355,   0.202115,  -0.969810,  -0.317686, -63.000000, -807.000000, -181.500000,  -0.957625,  89.999184,  40.948284,   0.660337,   0.664461,   0.241782,   0.252857, 
23750,   0.146421,   9.827210,   0.087271,  -0.257410,   0.099572,  -0.130218,   0.206259,  -0.955238,  -0.320815, -61.500000, -802.500000, -183.000000,  -0.958759,  89.997304,  40.884820,   0.660487,   0.664589,   0.241404,   0.252503, 
23751,   0.150686,   9.846211,   0.063447,   0.022518,   0.251702,  -0.019996,   0.203344,  -0.958496,  -0.330144, -63.000000, -804.000000, -186.000000,  -0.957263,  89.987808,  40.811700,   0.660709,   0.664687,   0.240969,   0.252093, 
23752,   0.155545,   9.828662,  -0.078495,  -0.119286,   0.179507,  -0.092464,   0.200275,  -0.959762,  -0.325282, -64.500000, -804.000000, -184.500000,  -0.957488,  89.998088,  40.736016,   0.660815,   0.664905,   0.240551,   0.251637, 
23753,   0.112736,   9.812768,   0.053174,  -0.070324,   0.117240,  -0.069823,   0.202473,  -0.965374,  -0.317109, -63.000000, -805.500000, -181.500000,  -0.957381,  89.993528,  40.675188,   0.660973,   0.665004,   0.240188,   0.251294, 
23754,   0.182599,   9.786471,  -0.011043,  -0.007712,   0.179433,  -0.056424,   0.199746,  -0.965011,  -0.321322, -64.500000, -805.500000, -183.000000,  -0.958113,  89.992728,  40.607108,   0.661123,   0.665142,   0.239786,   0.250906, 
23755,   0.145139,   9.818001,  -0.041400,  -0.007830,   0.161464,  -0.091557,   0.196318,  -0.970713,  -0.317038, -66.000000, -807.000000, -181.500000,  -0.957690,  90.000752,  40.537316,   0.661228,   0.665331,   0.239400,   0.250484, 
23756,   0.154489,   9.820808,   0.016507,  -0.034087,   0.117218,  -0.057820,   0.200121,  -0.957770,  -0.311092, -64.500000, -802.500000, -180.000000,  -0.956891,  89.999056,  40.480228,   0.661364,   0.665438,   0.239069,   0.250153, 
23757,   0.161087,   9.755924,  -0.061389,  -0.085753,   0.117776,   0.028649,   0.201197,  -0.944463,  -0.309360, -64.500000, -798.000000, -180.000000,  -0.957629,  90.005784,  40.424204,   0.661444,   0.665594,   0.238754,   0.249819, 
23758,   0.185764,   9.829575,   0.001402,  -0.102332,   0.152647,  -0.118863,   0.201180,  -0.947269,  -0.319012, -64.500000, -799.500000, -183.000000,  -0.959267,  90.008336,  40.360956,   0.661562,   0.665743,   0.238382,   0.249458, 
23759,   0.132047,   9.817248,   0.073583,  -0.119533,   0.161936,  -0.049264,   0.205167,  -0.971351,  -0.332200, -61.500000, -808.500000, -186.000000,  -0.957843,  90.001032,  40.292680,   0.661756,   0.665839,   0.237978,   0.249070, 
23760,   0.137627,   9.775440,  -0.018468,  -0.025691,   0.090288,  -0.101721,   0.204979,  -0.974971,  -0.337315, -61.500000, -810.000000, -187.500000,  -0.958399,  90.001256,  40.218448,   0.661914,   0.665995,   0.237543,   0.248644, 
23761,   0.216225,   9.812898,   0.005159,  -0.121169,   0.001981,  -0.017312,   0.200788,  -0.957318,  -0.338895, -64.500000, -804.000000, -189.000000,  -0.962511,  90.003648,  40.138620,   0.662064,   0.666182,   0.237060,   0.248202, 
23762,   0.123046,   9.831095,  -0.044506,  -0.051655,   0.081804,  -0.032534,   0.197002,  -0.967455,  -0.335188, -66.000000, -807.000000, -187.500000,  -0.961401,  90.006688,  40.056872,   0.662225,   0.666366,   0.236598,   0.247717, 
23763,   0.229039,   9.775205,  -0.091557,  -0.002061,  -0.114028,  -0.035467,   0.208252,  -0.967278,  -0.327409, -60.000000, -807.000000, -184.500000,  -0.967229,  90.015368,  39.996328,   0.662293,   0.666553,   0.236231,   0.247382, 
23764,   0.229390,   9.830191,  -0.106862,  -0.159887,  -0.451959,  -0.086725,   0.211867,  -0.957955,  -0.326578, -58.500000, -804.000000, -184.500000,  -0.973823,  90.030912,  39.936808,   0.662316,   0.666779,   0.235879,   0.247045, 
23765,   0.266945,   9.820518,  -0.072359,  -0.157466,  -1.083789,  -0.132735,   0.203703,  -0.954060,  -0.329566, -63.000000, -802.500000, -186.000000,  -0.986320,  90.039728,  39.864252,   0.662395,   0.667005,   0.235404,   0.246679, 
23766,   0.336793,   9.737237,  -0.245993,   0.021749,  -2.053460,  -0.060959,   0.201709,  -0.942019,  -0.322972, -64.500000, -798.000000, -184.500000,  -1.004583,  90.060960,  39.787236,   0.662398,   0.667324,   0.234895,   0.246296, 
23767,   0.340025,   9.851459,  -0.028121,  -0.271178,  -3.031676,  -0.133784,   0.198298,  -0.944914,  -0.309036, -66.000000, -798.000000, -180.000000,  -1.027826,  90.067336,  39.715620,   0.662466,   0.667556,   0.234357,   0.246004, 
23768,   0.305252,   9.802063,  -0.083299,  -0.068816,  -4.268337,  -0.075199,   0.206088,  -0.956052,  -0.316278, -61.500000, -802.500000, -181.500000,  -1.045452,  90.071080,  39.635260,   0.662581,   0.667780,   0.233795,   0.245635, 
23769,   0.327037,   9.795325,  -0.002289,  -0.242064,  -5.290993,  -0.086574,   0.213690,  -0.970811,  -0.328635, -57.000000, -808.500000, -184.500000,  -1.063561,  90.072000,  39.543644,   0.662735,   0.668011,   0.233158,   0.245209, 
23770,   0.332645,   9.811314,  -0.032334,  -0.098120,  -6.376903,  -0.147796,   0.219331,  -0.967915,  -0.315093, -54.000000, -807.000000, -180.000000,  -1.084049,  90.070360,  39.463692,   0.662875,   0.668209,   0.232570,   0.244870, 
23771,   0.363292,   9.830684,  -0.028552,  -0.202220,  -7.355277,  -0.166325,   0.216028,  -0.940576,  -0.320055, -57.000000, -798.000000, -183.000000,  -1.104771,  90.071216,  39.365024,   0.663039,   0.668458,   0.231877,   0.244418, 
23772,   0.338782,   9.791890,  -0.088367,  -0.027007,  -8.734264,  -0.119272,   0.201180,  -0.947269,  -0.319012, -64.500000, -799.500000, -183.000000,  -1.125322,  90.072920,  39.239696,   0.663249,   0.668759,   0.231028,   0.243807, 
23773,   0.376751,   9.786858,  -0.006055,  -0.312121,  -9.783448,  -0.149756,   0.194309,  -0.961479,  -0.320096, -67.500000, -804.000000, -183.000000,  -1.146516,  90.076232,  39.095328,   0.663488,   0.669108,   0.230068,   0.243087, 
23774,   0.375158,   9.763954,  -0.079853,  -0.138239, -11.304996,  -0.148765,   0.203173,  -0.959310,  -0.325606, -63.000000, -804.000000, -184.500000,  -1.167657,  90.079552,  38.945128,   0.663739,   0.669468,   0.229074,   0.242332, 
23775,   0.321243,   9.870316,   0.040800,  -0.168855, -12.675157,  -0.208257,   0.215312,  -0.949448,  -0.321210, -57.000000, -801.000000, -183.000000,  -1.187311,  90.072880,  38.803048,   0.664036,   0.669752,   0.228114,   0.241636, 
23776,   0.385309,   9.803404,  -0.024865,  -0.354735, -14.097814,  -0.165957,   0.211104,  -0.934600,  -0.332442, -60.000000, -796.500000, -187.500000,  -1.208694,  90.076984,  38.631032,   0.664329,   0.670159,   0.226992,   0.240755, 
23777,   0.319846,   9.828964,   0.037221,  -0.418764, -15.369947,  -0.206670,   0.205308,  -0.935503,  -0.331794, -63.000000, -796.500000, -187.500000,  -1.228874,  90.071656,  38.443488,   0.664713,   0.670541,   0.225767,   0.239795, 
23778,   0.344288,   9.768668,  -0.004539,  -0.133380, -16.891352,  -0.126121,   0.203857,  -0.956052,  -0.343756, -63.000000, -804.000000, -190.500000,  -1.248743,  90.066528,  38.232748,   0.665146,   0.670968,   0.224408,   0.238700, 
23779,   0.359203,   9.755606,  -0.004437,  -0.300189, -18.136564,  -0.167488,   0.196969,  -0.973068,  -0.354493, -66.000000, -810.000000, -193.500000,  -1.266733,  90.063512,  37.991932,   0.665634,   0.671463,   0.222888,   0.237414, 
23780,   0.279943,   9.897629,   0.061167,  -0.390959, -19.515618,  -0.253910,   0.196239,  -0.944100,  -0.341052, -67.500000, -799.500000, -190.500000,  -1.280280,  90.056144,  37.751376,   0.666141,   0.671908,   0.221382,   0.236108, 
23781,   0.433778,   9.758363,  -0.061125,  -0.361098, -20.832050,  -0.216049,   0.204778,  -0.940754,  -0.327834, -63.000000, -798.000000, -186.000000,  -1.300609,  90.062480,  37.521572,   0.666530,   0.672422,   0.219927,   0.234876, 
23782,   0.308937,   9.821881,   0.056610,  -0.401397, -22.317970,  -0.303813,   0.203499,  -0.960487,  -0.344334, -63.000000, -805.500000, -190.500000,  -1.313705,  90.056656,  37.265504,   0.667060,   0.672902,   0.218334,   0.233473, 
23783,   0.385184,   9.755256,  -0.190145,  -0.233238, -23.545836,  -0.280261,   0.195710,  -0.949350,  -0.337092, -67.500000, -801.000000, -189.000000,  -1.328318,  90.071824,  36.990320,   0.667502,   0.673542,   0.216663,   0.231928, 
23784,   0.264935,   9.893027,   0.061708,  -0.536451, -24.687866,  -0.306792,   0.201864,  -0.944011,  -0.337162, -64.500000, -799.500000, -189.000000,  -1.338904,  90.072704,  36.716528,   0.668033,   0.674089,   0.214995,   0.230395, 
23785,   0.325776,   9.776690,  -0.146901,  -0.235435, -25.502782,  -0.262836,   0.208156,  -0.943472,  -0.361075, -61.500000, -801.000000, -196.500000,  -1.342379,  90.087328,  36.416568,   0.668541,   0.674741,   0.213238,   0.228638, 
23786,   0.262222,   9.809159,  -0.025975,  -0.489478, -26.119350,  -0.339444,   0.204387,  -0.950802,  -0.347716, -63.000000, -802.500000, -192.000000,  -1.349159,  90.094848,  36.123272,   0.669060,   0.675335,   0.211484,   0.226950, 
23787,   0.300082,   9.787184,  -0.014889,  -0.206861, -26.961906,  -0.297148,   0.198028,  -0.962568,  -0.362413, -66.000000, -807.000000, -196.500000,  -1.351719,  90.092968,  35.807056,   0.669688,   0.675908,   0.209600,   0.225121, 
23788,   0.255007,   9.785478,   0.012249,  -0.474410, -27.668750,  -0.250766,   0.187479,  -0.956680,  -0.378690, -72.000000, -805.500000, -202.500000,  -1.357020,  90.096416,  35.459392,   0.670342,   0.676575,   0.207525,   0.223114, 
23789,   0.209682,   9.858347,   0.047633,  -0.426771, -28.367136,  -0.341943,   0.196531,  -0.950891,  -0.379084, -67.500000, -804.000000, -202.500000,  -1.357911,  90.091144,  35.119888,   0.671037,   0.677165,   0.205506,   0.221144, 
23790,   0.204420,   9.843346,   0.075911,  -0.641497, -29.139448,  -0.317416,   0.201985,  -0.951616,  -0.370657, -64.500000, -804.000000, -199.500000,  -1.360072,  90.088912,  34.790720,   0.671670,   0.677735,   0.203541,   0.219230, 
23791,   0.178079,   9.771611,   0.045568,  -0.584992, -29.603212,  -0.330835,   0.193462,  -0.952157,  -0.374223, -69.000000, -804.000000, -201.000000,  -1.358223,  90.085080,  34.444364,   0.672353,   0.678318,   0.201494,   0.217194, 
23792,   0.202500,   9.790806,   0.087402,  -0.505407, -30.049248,  -0.347553,   0.193788,  -0.953334,  -0.392950, -69.000000, -805.500000, -207.000000,  -1.355870,  90.076816,  34.083000,   0.673091,   0.678901,   0.199354,   0.215074, 
23793,   0.213339,   9.830646,   0.001018,  -0.429714, -30.404280,  -0.352060,   0.205380,  -0.951528,  -0.394246, -63.000000, -805.500000, -207.000000,  -1.347763,  90.076424,  33.730772,   0.673775,   0.679503,   0.197316,   0.212960, 
23794,   0.179924,   9.851084,   0.204783,  -0.586798, -30.546790,  -0.264458,   0.206268,  -0.941843,  -0.397629, -63.000000, -802.500000, -208.500000,  -1.343469,  90.056176,  33.385060,   0.674534,   0.679960,   0.195251,   0.210932, 
23795,   0.196005,   9.764441,   0.049237,  -0.581333, -30.982384,  -0.398813,   0.197728,  -0.945189,  -0.410847, -67.500000, -804.000000, -213.000000,  -1.341397,  90.051976,  33.016144,   0.675235,   0.680554,   0.193064,   0.208754, 
23796,   0.120921,   9.798439,   0.113553,  -0.456706, -31.298656,  -0.338270,   0.194472,  -0.950076,  -0.411100, -69.000000, -805.500000, -213.000000,  -1.332218,  90.038320,  32.643276,   0.676013,   0.681087,   0.190880,   0.206525, 
23797,   0.199981,   9.801144,   0.005620,  -0.448906, -31.471548,  -0.319015,   0.204600,  -0.930979,  -0.409762, -64.500000, -799.500000, -213.000000,  -1.323922,  90.035968,  32.283600,   0.676693,   0.681662,   0.188788,   0.204359, 
23798,   0.138697,   9.828327,   0.103739,  -0.621165, -31.717288,  -0.324312,   0.192975,  -0.938398,  -0.427771, -70.500000, -802.500000, -219.000000,  -1.314450,  90.028960,  31.906982,   0.677411,   0.682213,   0.186588,   0.202087, 
23799,   0.222263,   9.791076,  -0.030810,  -0.563957, -31.827408,  -0.378823,   0.198567,  -0.943923,  -0.443187, -67.500000, -805.500000, -223.500000,  -1.306409,  90.030184,  31.520474,   0.678094,   0.682831,   0.184336,   0.199751, 
23800,   0.210077,   9.796589,   0.067003,  -0.424916, -31.939072,  -0.310619,   0.195873,  -0.937947,  -0.428095, -69.000000, -802.500000, -219.000000,  -1.302271,  90.025760,  31.141400,   0.678790,   0.683410,   0.182095,   0.197491, 
23801,   0.221255,   9.765552,   0.032311,  -0.454924, -32.076314,  -0.295015,   0.200034,  -0.920568,  -0.421571, -67.500000, -796.500000, -217.500000,  -1.297996,  90.023192,  30.774252,   0.679443,   0.683969,   0.179925,   0.195294, 
23802,   0.152137,   9.840379,   0.090208,  -0.595413, -32.207794,  -0.363687,   0.207027,  -0.913963,  -0.453982, -64.500000, -796.500000, -228.000000,  -1.286640,  90.023232,  30.404480,   0.680082,   0.684522,   0.177783,   0.193031, 
23803,   0.194241,   9.732032,   0.003169,  -0.458459, -32.432072,  -0.283968,   0.211593,  -0.924375,  -0.442173, -61.500000, -799.500000, -223.500000,  -1.282406,  90.023376,  30.039256,   0.680700,   0.685079,   0.175626,   0.190837, 
23804,   0.084396,   9.822797,   0.089167,  -0.598762, -32.539684,  -0.323205,   0.208132,  -0.935690,  -0.457194, -63.000000, -804.000000, -228.000000,  -1.266629,  90.020696,  29.673578,   0.681354,   0.685603,   0.173531,   0.188576, 
23805,   0.125191,   9.803266,  -0.019722,  -0.511224, -32.565624,  -0.330437,   0.201774,  -0.947456,  -0.471891, -66.000000, -808.500000, -232.500000,  -1.248650,  90.025424,  29.292352,   0.681975,   0.686175,   0.171364,   0.186193, 
23806,   0.057009,   9.847673,   0.047012,  -0.794662, -32.294532,  -0.406103,   0.204517,  -0.945012,  -0.458025, -64.500000, -807.000000, -228.000000,  -1.232142,  90.033880,  28.914586,   0.682555,   0.686756,   0.169212,   0.183831, 
23807,   0.102467,   9.791584,  -0.044686,  -0.352363, -32.130050,  -0.320949,   0.205576,  -0.934512,  -0.465945, -64.500000, -804.000000, -231.000000,  -1.213085,  90.036072,  28.548002,   0.683158,   0.687280,   0.167132,   0.181530, 
23808,   0.128780,   9.761889,  -0.021232,  -0.440767, -32.002418,  -0.335127,   0.197395,  -0.933423,  -0.478585, -69.000000, -804.000000, -235.500000,  -1.199082,  90.042240,  28.176280,   0.683737,   0.687844,   0.164997,   0.179223, 
23809,   0.100464,   9.921483,   0.018534,  -0.394056, -32.005456,  -0.327897,   0.200106,  -0.936592,  -0.484024, -67.500000, -805.500000, -237.000000,  -1.178914,  90.038512,  27.800122,   0.684367,   0.688323,   0.162852,   0.176861, 
23810,   0.158799,   9.773669,  -0.065525,  -0.705629, -32.253898,  -0.344446,   0.200293,  -0.932972,  -0.478909, -67.500000, -804.000000, -235.500000,  -1.171890,  90.050400,  27.430692,   0.684869,   0.688901,   0.160691,   0.174593, 
23811,   0.089886,   9.822892,  -0.008759,  -0.576168, -32.201210,  -0.420411,   0.189760,  -0.924278,  -0.485533, -73.500000, -801.000000, -238.500000,  -1.156072,  90.048504,  27.057614,   0.685472,   0.689391,   0.158541,   0.172271, 
23812,   0.172501,   9.761786,  -0.060709,  -0.310406, -32.227966,  -0.313523,   0.192813,  -0.925818,  -0.500047, -72.000000, -802.500000, -243.000000,  -1.145168,  90.052056,  26.677218,   0.686042,   0.689927,   0.156324,   0.169927, 
23813,   0.109441,   9.860453,   0.086428,  -0.869237, -32.307132,  -0.390709,   0.189027,  -0.935955,  -0.496341, -73.500000, -805.500000, -241.500000,  -1.126755,  90.056032,  26.294542,   0.686599,   0.690435,   0.154133,   0.167517, 
23814,   0.146445,   9.852240,  -0.025432,  -0.586316, -32.343040,  -0.327310,   0.182734,  -0.936495,  -0.472427, -76.500000, -804.000000, -234.000000,  -1.111200,  90.054576,  25.920452,   0.687171,   0.690903,   0.151970,   0.165182, 
23815,   0.086142,   9.713169,  -0.104468,  -0.852561, -32.369796,  -0.461262,   0.185211,  -0.911059,  -0.487690, -76.500000, -796.500000, -240.000000,  -1.102174,  90.071616,  25.549736,   0.687617,   0.691486,   0.149813,   0.162883, 
23816,   0.202887,   9.715596,  -0.074678,  -0.328997, -32.370216,  -0.307552,   0.178990,  -0.927624,  -0.526230, -79.500000, -804.000000, -252.000000,  -1.091549,  90.072672,  25.166608,   0.688168,   0.691978,   0.147567,   0.160518, 
23817,   0.215866,   9.838943,  -0.019022,  -0.465646, -32.308040,  -0.386279,   0.180813,  -0.940479,  -0.528286, -78.000000, -808.500000, -252.000000,  -1.082809,  90.076664,  24.803924,   0.688653,   0.692447,   0.145432,   0.158280, 
23818,   0.196418,   9.822987,   0.023903,  -0.783395, -32.307236,  -0.372360,   0.184428,  -0.931156,  -0.527455, -76.500000, -805.500000, -252.000000,  -1.070374,  90.087424,  24.452812,   0.689086,   0.692938,   0.143399,   0.156081, 
23819,   0.187262,   9.724484,  -0.054133,  -0.576620, -32.236484,  -0.360122,   0.178615,  -0.934866,  -0.536460, -79.500000, -807.000000, -255.000000,  -1.066479,  90.089712,  24.102578,   0.689557,   0.693388,   0.141309,   0.153949, 
23820,   0.096664,   9.806767,   0.066821,  -0.355268, -32.414424,  -0.265112,   0.176622,  -0.922825,  -0.529866, -81.000000, -802.500000, -253.500000,  -1.058406,  90.082016,  23.748666,   0.690088,   0.693766,   0.139205,   0.151780, 
23821,   0.092663,   9.808380,   0.161218,  -0.518147, -32.405738,  -0.379890,   0.182247,  -0.922737,  -0.525976, -78.000000, -802.500000, -252.000000,  -1.048776,  90.070216,  23.376834,   0.690654,   0.694124,   0.136995,   0.149494, 
23822,   0.143605,   9.842965,   0.201753,  -0.786450, -32.627812,  -0.439009,   0.190721,  -0.930617,  -0.551368, -73.500000, -807.000000, -259.500000,  -1.043468,  90.055232,  23.031362,   0.691199,   0.694438,   0.134915,   0.147397, 
23823,   0.109714,   9.797812,   0.086978,  -0.576886, -33.135026,  -0.376088,   0.193602,  -0.932971,  -0.561345, -72.000000, -808.500000, -262.500000,  -1.034814,  90.038928,  22.700976,   0.691738,   0.694722,   0.132945,   0.145371, 
23824,   0.056733,   9.774083,   0.251222,  -0.664071, -33.268276,  -0.379416,   0.182401,  -0.924729,  -0.540166, -78.000000, -804.000000, -256.500000,  -1.023523,  90.013032,  22.367952,   0.692331,   0.694939,   0.130962,   0.143322, 
23825,   0.121074,   9.776274,   0.204490,  -0.408053, -33.428940,  -0.370748,   0.174954,  -0.911962,  -0.541999, -82.500000, -799.500000, -258.000000,  -1.011606,  89.987880,  22.032858,   0.692907,   0.695146,   0.128969,   0.141252, 
23826,   0.060916,   9.802619,   0.150945,  -0.683951, -33.562388,  -0.497999,   0.166756,  -0.913680,  -0.564292, -87.000000, -801.000000, -265.500000,  -0.999115,  89.973264,  21.696298,   0.693421,   0.695417,   0.126985,   0.139156, 
23827,   0.136197,   9.801038,   0.201669,  -0.650607, -33.641864,  -0.368500,   0.172381,  -0.913592,  -0.560403, -84.000000, -801.000000, -264.000000,  -0.985387,  89.951304,  21.358572,   0.693982,   0.695644,   0.124992,   0.137054, 
23828,   0.178855,   9.846231,  -0.043490,  -0.198125, -33.909776,  -0.368275,   0.181075,  -0.912237,  -0.561375, -79.500000, -801.000000, -264.000000,  -0.972768,  89.935064,  21.018182,   0.694504,   0.695905,   0.122984,   0.134934, 
23829,   0.127382,   9.841242,   0.209303,  -0.733647, -34.228932,  -0.397251,   0.178177,  -0.912688,  -0.561051, -81.000000, -801.000000, -264.000000,  -0.965789,  89.922640,  20.675086,   0.694980,   0.696179,   0.120926,   0.132823, 
23830,   0.133807,   9.834913,   0.103117,  -0.515440, -34.745508,  -0.421431,   0.178177,  -0.912688,  -0.561051, -81.000000, -801.000000, -264.000000,  -0.957684,  89.910024,  20.328182,   0.695462,   0.696454,   0.118853,   0.130682, 
23831,   0.209271,   9.822796,   0.099540,  -0.802068, -35.064824,  -0.369341,   0.178486,  -0.916673,  -0.589431, -81.000000, -804.000000, -273.000000,  -0.958076,  89.909120,  19.976830,   0.695869,   0.696815,   0.116714,   0.128553, 
23832,   0.099724,   9.851594,   0.105235,  -0.723256, -35.794900,  -0.459770,   0.171022,  -0.906713,  -0.600916, -85.500000, -801.000000, -277.500000,  -0.952334,  89.896056,  19.620424,   0.696357,   0.697095,   0.114568,   0.126367, 
23833,   0.213313,   9.722140,  -0.121219,  -0.487668, -36.275488,  -0.396090,   0.160660,  -0.897204,  -0.612078, -91.500000, -798.000000, -282.000000,  -0.951005,  89.901704,  19.258270,   0.696711,   0.697478,   0.112377,   0.124151, 
23834,   0.133457,   9.831818,   0.179243,  -0.749851, -36.737472,  -0.398483,   0.165381,  -0.909608,  -0.614458, -88.500000, -802.500000, -282.000000,  -0.952397,  89.891744,  18.891186,   0.697162,   0.697773,   0.110123,   0.121936, 
23835,   0.129463,   9.836377,   0.032331,  -0.577116, -37.316168,  -0.415565,   0.167407,  -0.916035,  -0.601747, -87.000000, -804.000000, -277.500000,  -0.945133,  89.889096,  18.518366,   0.697584,   0.698110,   0.107894,   0.119626, 
23836,   0.227622,   9.778401,   0.099056,  -0.941941, -37.938280,  -0.465448,   0.165414,  -0.903994,  -0.595153, -88.500000, -799.500000, -276.000000,  -0.955210,  89.890704,  18.139932,   0.697958,   0.698484,   0.105529,   0.117382, 
23837,   0.091304,   9.890597,   0.051494,  -0.597878, -38.652684,  -0.462747,   0.174621,  -0.900196,  -0.609738, -84.000000, -799.500000, -280.500000,  -0.943774,  89.877136,  17.755164,   0.698434,   0.698734,   0.103238,   0.114979, 
23838,   0.223267,   9.653937,  -0.011421,  -0.851636, -39.228376,  -0.469968,   0.172048,  -0.901826,  -0.628141, -85.500000, -801.000000, -286.500000,  -0.958293,  89.878360,  17.364300,   0.698802,   0.699103,   0.100766,   0.112684, 
23839,   0.133715,   9.885624,   0.092724,  -0.492772, -39.593612,  -0.408682,   0.166765,  -0.900285,  -0.641106, -88.500000, -801.000000, -291.000000,  -0.948123,  89.866928,  16.968326,   0.699274,   0.699376,   0.098402,   0.110217, 
23840,   0.143949,   9.881688,   0.031814,  -0.848659, -39.797752,  -0.480051,   0.166236,  -0.905535,  -0.637146, -88.500000, -802.500000, -289.500000,  -0.951956,  89.867536,  16.568361,   0.699642,   0.699717,   0.095937,   0.107798, 
23841,   0.076950,   9.892015,   0.168371,  -0.994559, -40.161736,  -0.401096,   0.154864,  -0.898107,  -0.611430, -94.500000, -798.000000, -282.000000,  -0.939746,  89.855312,  16.166422,   0.700097,   0.699960,   0.093545,   0.105278, 
23842,   0.171919,   9.728186,  -0.104409,  -0.783206, -40.127068,  -0.485181,   0.151966,  -0.898559,  -0.611106, -96.000000, -798.000000, -282.000000,  -0.933695,  89.862424,  15.763126,   0.700430,   0.700328,   0.091125,   0.102772, 
23843,  -0.020529,   9.767968,   0.142380,  -0.724513, -39.877924,  -0.447230,   0.151746,  -0.907793,  -0.635526, -96.000000, -802.500000, -289.500000,  -0.913319,  89.849560,  15.360696,   0.700887,   0.700553,   0.088779,   0.100198, 
23844,   0.107821,   9.794497,  -0.032251,  -0.526027, -39.281952,  -0.362898,   0.146447,  -0.909058,  -0.658143, -99.000000, -804.000000, -297.000000,  -0.900081,  89.853896,  14.963437,   0.701206,   0.700865,   0.086434,   0.097682, 
23845,   0.003606,   9.939259,   0.063463,  -0.715670, -38.984472,  -0.454467,   0.144795,  -0.895389,  -0.660624, -100.500000, -799.500000, -298.500000,  -0.881765,  89.853400,  14.569807,   0.701556,   0.701141,   0.084138,   0.095161, 
23846,   0.017333,   9.894514,   0.084584,  -1.118620, -38.445152,  -0.511212,   0.141538,  -0.900276,  -0.660877, -102.000000, -801.000000, -298.500000,  -0.869458,  89.857656,  14.181221,   0.701867,   0.701448,   0.081840,   0.092704, 
23847,   0.114106,   9.794547,  -0.038106,  -0.501645, -38.170164,  -0.383490,   0.146821,  -0.901816,  -0.647913, -99.000000, -801.000000, -294.000000,  -0.857846,  89.854848,  13.796429,   0.702196,   0.701689,   0.079553,   0.090277, 
23848,   0.059221,   9.800564,  -0.011953,  -0.874529, -38.062800,  -0.432106,   0.150232,  -0.898921,  -0.661849, -97.500000, -801.000000, -298.500000,  -0.857522,  89.861144,  13.413539,   0.702451,   0.701985,   0.077214,   0.087924, 
23849,   0.169724,   9.726351,   0.075573,  -0.392978, -37.980420,  -0.340242,   0.133341,  -0.901994,  -0.683170, -106.500000, -802.500000, -306.000000,  -0.855912,  89.843320,  13.031859,   0.702852,   0.702130,   0.074872,   0.085586, 
23850,   0.153351,   9.849477,   0.173502,  -0.883531, -38.134840,  -0.607544,   0.127716,  -0.902082,  -0.687060, -109.500000, -802.500000, -307.500000,  -0.856583,  89.841760,  12.649222,   0.703153,   0.702377,   0.072523,   0.083245, 
23851,   0.128380,   9.870440,   0.076412,  -0.532399, -38.202000,  -0.438546,   0.134913,  -0.889050,  -0.704703, -106.500000, -799.500000, -313.500000,  -0.849955,  89.826568,  12.265179,   0.703515,   0.702508,   0.070198,   0.080855, 
23852,   0.008802,   9.898617,   0.121704,  -1.254800, -38.320256,  -0.501790,   0.141580,  -0.881268,  -0.718386, -103.500000, -798.000000, -318.000000,  -0.842802,  89.832816,  11.880222,   0.703747,   0.702771,   0.067885,   0.078444, 
23853,   0.116856,   9.629772,  -0.130526,  -0.347505, -38.012112,  -0.332568,   0.140676,  -0.893760,  -0.724656, -103.500000, -802.500000, -319.500000,  -0.831603,  89.829928,  11.496983,   0.704036,   0.702976,   0.065602,   0.076023, 
23854,  -0.003744,   9.817060,   0.153424,  -0.639347, -37.716104,  -0.371138,   0.134367,  -0.897107,  -0.710395, -106.500000, -802.500000, -315.000000,  -0.815791,  89.825808,  11.116462,   0.704323,   0.703158,   0.063362,   0.073590, 
23855,   0.125930,   9.736889,  -0.129860,  -0.568443, -37.205328,  -0.382556,   0.128742,  -0.897195,  -0.714285, -109.500000, -802.500000, -316.500000,  -0.800942,  89.841912,  10.739524,   0.704464,   0.703447,   0.061150,   0.071173, 
23856,   0.049513,   9.874006,   0.238843,  -0.689129, -36.675332,  -0.396710,   0.133228,  -0.880993,  -0.726488, -108.000000, -798.000000, -321.000000,  -0.787430,  89.828552,  10.368148,   0.704781,   0.703551,   0.058945,   0.068813, 
23857,   0.235281,   9.661036,  -0.252900,  -0.726487, -36.216904,  -0.451831,   0.133554,  -0.882171,  -0.745216, -108.000000, -799.500000, -327.000000,  -0.784413,  89.856960,  10.001196,   0.704833,   0.703918,   0.056727,   0.066524, 
23858,   0.121022,   9.865207,   0.047567,  -0.216254, -35.742176,  -0.357516,   0.133383,  -0.882985,  -0.740679, -108.000000, -799.500000, -325.500000,  -0.769421,  89.844352,   9.640001,   0.705123,   0.704007,   0.054593,   0.064216, 
23859,  -0.035676,   9.942393,   0.157599,  -1.001361, -35.457328,  -0.480044,   0.133041,  -0.884614,  -0.731604, -108.000000, -799.500000, -322.500000,  -0.756151,  89.851568,   9.281893,   0.705277,   0.704206,   0.052478,   0.061927, 
23860,   0.176392,   9.718007,  -0.043005,  -0.674738, -35.216392,  -0.379334,   0.138804,  -0.889325,  -0.751557, -105.000000, -802.500000, -328.500000,  -0.756786,  89.856736,   8.926808,   0.705434,   0.704398,   0.050295,   0.059743, 
23861,   0.099504,   9.833825,   0.058336,  -0.583270, -34.832788,  -0.317359,   0.134254,  -0.876106,  -0.753713, -108.000000, -798.000000, -330.000000,  -0.746709,  89.849472,   8.574045,   0.705672,   0.704508,   0.048185,   0.057513, 
23862,   0.057944,   9.733908,  -0.072795,  -0.498089, -34.718588,  -0.368544,   0.131373,  -0.873751,  -0.743737, -109.500000, -796.500000, -327.000000,  -0.744856,  89.850656,   8.223907,   0.705835,   0.704656,   0.046044,   0.055344, 
23863,   0.133815,   9.792461,   0.051154,  -0.462833, -34.611464,  -0.279222,   0.124706,  -0.881534,  -0.730054, -112.500000, -798.000000, -322.500000,  -0.742097,  89.845376,   7.875203,   0.706028,   0.704754,   0.043913,   0.053181, 
23864,   0.101110,   9.920910,   0.007325,  -0.720549, -34.638068,  -0.378267,   0.124689,  -0.884340,  -0.739707, -112.500000, -799.500000, -325.500000,  -0.744228,  89.848416,   7.527062,   0.706168,   0.704904,   0.041760,   0.051048, 
23865,   0.111385,   9.895886,   0.094729,  -0.711086, -34.558284,  -0.428962,   0.125732,  -0.876646,  -0.757279, -112.500000, -798.000000, -331.500000,  -0.738674,  89.842128,   7.179316,   0.706368,   0.704994,   0.039653,   0.048873, 
23866,   0.050876,   9.798261,  -0.025001,  -1.031802, -34.869160,  -0.481534,   0.111583,  -0.877275,  -0.764734, -120.000000, -798.000000, -334.500000,  -0.733629,  89.857128,   6.829858,   0.706422,   0.705201,   0.037540,   0.046683, 
23867,   0.248992,   9.652890,  -0.139295,  -0.345126, -34.860656,  -0.247541,   0.108823,  -0.882525,  -0.788252, -121.500000, -801.000000, -342.000000,  -0.732692,  89.858328,   6.478649,   0.706548,   0.705314,   0.035384,   0.044511, 
23868,  -0.002335,   9.839212,  -0.005304,  -0.390420, -35.137452,  -0.470532,   0.110287,  -0.899815,  -0.790887, -120.000000, -807.000000, -342.000000,  -0.720470,  89.858776,   6.126333,   0.706684,   0.705419,   0.033291,   0.042263, 
23869,   0.221457,   9.784504,   0.008719,  -0.786910, -35.269476,  -0.372810,   0.111004,  -0.890945,  -0.789732, -120.000000, -804.000000, -342.000000,  -0.720751,  89.865528,   5.771881,   0.706777,   0.705568,   0.031110,   0.040077, 
23870,   0.150262,   9.862677,   0.073160,  -0.524392, -35.634552,  -0.324186,   0.106267,  -0.881348,  -0.797004, -123.000000, -801.000000, -345.000000,  -0.722344,  89.860032,   5.414760,   0.706930,   0.705626,   0.028899,   0.037886, 
23871,   0.032367,   9.846125,   0.015614,  -1.026198, -36.034336,  -0.449956,   0.111876,  -0.884066,  -0.802766, -120.000000, -802.500000, -346.500000,  -0.717994,  89.872808,   5.054203,   0.706963,   0.705785,   0.026710,   0.035631, 
23872,   0.220637,   9.713323,  -0.161892,  -0.542070, -36.578156,  -0.462987,   0.108807,  -0.885332,  -0.797905, -121.500000, -802.500000, -345.000000,  -0.731530,  89.875872,   4.689348,   0.707051,   0.705890,   0.024380,   0.033463, 
23873,   0.137653,   9.858001,   0.073063,  -0.573277, -37.111292,  -0.359665,   0.098119,  -0.874645,  -0.790339, -127.500000, -798.000000, -343.500000,  -0.745051,  89.867616,   4.319453,   0.707211,   0.705924,   0.022016,   0.031265, 
23874,   0.155778,   9.769877,   0.072548,  -0.723203, -37.520464,  -0.420804,   0.106284,  -0.878541,  -0.787351, -123.000000, -799.500000, -342.000000,  -0.753602,  89.866720,   3.944422,   0.707308,   0.705984,   0.019652,   0.029003, 
23875,   0.289224,   9.792505,   0.007459,  -0.409734, -37.948060,  -0.398839,   0.105722,  -0.889404,  -0.802696, -123.000000, -804.000000, -346.500000,  -0.768408,  89.860464,   3.565847,   0.707430,   0.706003,   0.017227,   0.026758, 
23876,   0.195546,   9.840566,   0.107122,  -0.687588, -38.267976,  -0.459801,   0.100984,  -0.879807,  -0.809968, -126.000000, -801.000000, -349.500000,  -0.781822,  89.855920,   3.182676,   0.707543,   0.706034,   0.014782,   0.024476, 
23877,   0.163217,   9.883755,   0.150583,  -0.689091, -38.410004,  -0.401420,   0.100830,  -0.877815,  -0.795778, -126.000000, -799.500000, -345.000000,  -0.778133,  89.846424,   2.796073,   0.707690,   0.706030,   0.012421,   0.022067, 
23878,   0.175833,   9.855413,   0.109936,  -0.768814, -38.658968,  -0.415425,   0.101326,  -0.878178,  -0.819043, -126.000000, -801.000000, -352.500000,  -0.779100,  89.844728,   2.408674,   0.707761,   0.706047,   0.010028,   0.019680, 
23879,   0.050367,   9.967784,   0.017602,  -0.641956, -38.882420,  -0.565947,   0.089701,  -0.885597,  -0.837052, -132.000000, -804.000000, -358.500000,  -0.766529,  89.836624,   2.019016,   0.707873,   0.706024,   0.007703,   0.017197, 
23880,   0.190094,   9.810827,   0.222143,  -1.057460, -39.192068,  -0.419373,   0.087145,  -0.884420,  -0.845803, -133.500000, -804.000000, -361.500000,  -0.777260,  89.833560,   1.626697,   0.707951,   0.706034,   0.005219,   0.014839, 
23881,   0.059834,   9.778751,  -0.040882,  -0.654223, -39.246880,  -0.520340,   0.099609,  -0.875734,  -0.860134, -127.500000, -802.500000, -366.000000,  -0.761905,  89.835368,   1.231720,   0.707990,   0.706059,   0.002881,   0.012305, 
23882,   0.198476,   9.769770,   0.038636,  -0.835906, -39.361460,  -0.393833,   0.094017,  -0.870210,  -0.844719, -130.500000, -799.500000, -361.500000,  -0.760293,  89.837672,   0.836145,   0.708007,   0.706072,   0.000454,   0.009850, 
23883,   0.087829,   9.692143,  -0.240798,  -0.388886, -39.327320,  -0.475331,   0.087879,  -0.872742,  -0.834996, -133.500000, -799.500000, -358.500000,  -0.759001,  89.844656,   0.441195,   0.707996,   0.706114,  -0.001971,   0.007402, 
23884,   0.062331,   9.910609,   0.228931,  -0.568685, -39.255216,  -0.371595,   0.084248,  -0.884871,  -0.845479, -135.000000, -804.000000, -361.500000,  -0.745807,  89.825840,   0.046415,   0.708143,   0.705997,  -0.004323,   0.004881, 
23885,   0.036078,   9.920453,   0.077070,  -1.058571, -39.307800,  -0.438848,   0.073185,  -0.881427,  -0.848143, -141.000000, -802.500000, -363.000000,  -0.747732,  89.834192,  -0.347967,   0.708096,   0.706021,  -0.006764,   0.002456, 
23886,   0.139013,   9.771131,   0.070653,  -0.646787, -39.344180,  -0.408848,   0.067576,  -0.878709,  -0.842380, -144.000000, -801.000000, -361.500000,  -0.746201,  89.825952,  -0.743503,   0.708147,   0.705939,  -0.009191,   0.000002, 
23887,   0.156410,   9.804089,   0.105625,  -0.682511, -39.495692,  -0.481557,   0.059754,  -0.873184,  -0.854443, -148.500000, -799.500000, -366.000000,  -0.746718,  89.819632,  -1.139281,   0.708187,   0.705869,  -0.011633,  -0.002440, 
23888,   0.153796,   9.757681,  -0.036655,  -0.607376, -39.718404,  -0.510795,   0.060300,  -0.865128,  -0.848750, -148.500000, -796.500000, -364.500000,  -0.754010,  89.817776,  -1.537077,   0.708189,   0.705816,  -0.014128,  -0.004854, 
23889,   0.070703,   9.931206,   0.257335,  -0.563927, -39.655920,  -0.448286,   0.065721,  -0.871467,  -0.859629, -145.500000, -799.500000, -367.500000,  -0.738309,  89.793608,  -1.936240,   0.708307,   0.705607,  -0.016488,  -0.007421, 
23890,   0.050069,   9.830172,   0.151342,  -1.119179, -39.655820,  -0.486312,   0.054096,  -0.878886,  -0.877638, -151.500000, -802.500000, -373.500000,  -0.733698,  89.794304,  -2.334847,   0.708273,   0.705551,  -0.018914,  -0.009913, 
23891,   0.103261,   9.730679,  -0.024066,  -0.509248, -39.326612,  -0.389615,   0.045777,  -0.872999,  -0.866436, -156.000000, -799.500000, -370.500000,  -0.718648,  89.790536,  -2.732235,   0.708265,   0.705469,  -0.021267,  -0.012463, 
23892,   0.040658,   9.818756,   0.097231,  -0.714930, -38.913420,  -0.476404,   0.046290,  -0.870555,  -0.880048, -156.000000, -799.500000, -375.000000,  -0.696495,  89.783888,  -3.125851,   0.708250,   0.705349,  -0.023552,  -0.015033, 
23893,  -0.090683,   9.816469,   0.025300,  -0.672388, -38.481920,  -0.541761,   0.051882,  -0.876079,  -0.895464, -153.000000, -802.500000, -379.500000,  -0.665446,  89.778952,  -3.514945,   0.708216,   0.705237,  -0.025754,  -0.017630, 
23894,   0.087244,   9.777562,   0.115386,  -0.789867, -37.995892,  -0.453193,   0.048096,  -0.886216,  -0.891757, -154.500000, -805.500000, -378.000000,  -0.644913,  89.775016,  -3.899530,   0.708177,   0.705132,  -0.027994,  -0.020134, 
23895,  -0.031408,   9.756062,  -0.033315,  -0.688227, -37.458308,  -0.428017,   0.046974,  -0.867297,  -0.898198, -156.000000, -799.500000, -381.000000,  -0.625152,  89.779264,  -4.278827,   0.708084,   0.705074,  -0.030207,  -0.022599, 
23896,   0.100468,   9.707461,  -0.067644,  -0.511716, -36.881536,  -0.438066,   0.048187,  -0.858789,  -0.920308, -156.000000, -798.000000, -388.500000,  -0.610117,  89.776920,  -4.652779,   0.708009,   0.704952,  -0.032414,  -0.025002, 
23897,  -0.045083,   9.844609,   0.046315,  -0.705468, -36.577032,  -0.316817,   0.049230,  -0.851095,  -0.937881, -156.000000, -796.500000, -394.500000,  -0.588590,  89.777784,  -5.022244,   0.707912,   0.704854,  -0.034554,  -0.027417, 
23898,   0.106392,   9.744905,  -0.159902,  -0.428399, -36.169928,  -0.409033,   0.037996,  -0.848466,  -0.936007, -162.000000, -795.000000, -394.500000,  -0.586718,  89.784496,  -5.388317,   0.707785,   0.704788,  -0.036796,  -0.029688, 
23899,   0.060992,   9.802905,  -0.003086,  -0.502066, -35.990680,  -0.373782,   0.040194,  -0.854079,  -0.927834, -160.500000, -796.500000, -391.500000,  -0.574833,  89.784936,  -5.751060,   0.707685,   0.704678,  -0.038953,  -0.032001, 
23900,   0.116028,   9.914476,   0.151366,  -0.415263, -35.624712,  -0.476561,   0.039135,  -0.864579,  -0.919914, -160.500000, -799.500000, -388.500000,  -0.568872,  89.781048,  -6.110771,   0.707595,   0.704523,  -0.041127,  -0.034260, 
23901,  -0.011377,   9.893474,   0.070796,  -0.967386, -35.296112,  -0.444895,   0.032606,  -0.877159,  -0.930073, -163.500000, -804.000000, -391.500000,  -0.556189,  89.795320,  -6.467499,   0.707393,   0.704484,  -0.043246,  -0.036536, 
23902,   0.085940,   9.757479,  -0.097095,  -0.614286, -34.904556,  -0.450487,   0.032247,  -0.881595,  -0.930651, -163.500000, -805.500000, -391.500000,  -0.550266,  89.799752,  -6.820576,   0.707254,   0.704383,  -0.045382,  -0.038750, 
23903,  -0.008354,   9.805617,  -0.039011,  -0.573868, -34.567220,  -0.375392,   0.030441,  -0.865933,  -0.918942, -165.000000, -799.500000, -388.500000,  -0.535095,  89.801304,  -7.169607,   0.707120,   0.704260,  -0.047434,  -0.040997, 
23904,   0.013078,   9.805516,  -0.067704,  -0.606690, -34.137620,  -0.459985,   0.025345,  -0.860772,  -0.926791, -168.000000, -798.000000, -391.500000,  -0.524749,  89.811648,  -7.515209,   0.706919,   0.704175,  -0.049498,  -0.043188, 
23905,   0.055760,   9.780589,  -0.066288,  -0.677274, -33.730684,  -0.352966,   0.022448,  -0.861223,  -0.926467, -169.500000, -798.000000, -391.500000,  -0.515324,  89.822240,  -7.856815,   0.706718,   0.704093,  -0.051543,  -0.045348, 
23906,   0.033545,   9.803732,   0.000643,  -0.591927, -33.410008,  -0.423687,   0.020233,  -0.858417,  -0.944293, -171.000000, -798.000000, -397.500000,  -0.504203,  89.822456,  -8.195201,   0.706580,   0.703950,  -0.053554,  -0.047504, 
23907,   0.092114,   9.755000,  -0.050100,  -0.386335, -32.966332,  -0.353587,   0.014233,  -0.865747,  -0.958413, -174.000000, -801.000000, -402.000000,  -0.491991,  89.824664,  -8.529157,   0.706425,   0.703815,  -0.055531,  -0.049637, 
23908,   0.030470,   9.811955,   0.104495,  -0.652765, -32.602982,  -0.355868,   0.014046,  -0.869368,  -0.963528, -174.000000, -802.500000, -403.500000,  -0.488489,  89.824632,  -8.859111,   0.706269,   0.703646,  -0.057535,  -0.051692, 
23909,   0.082083,   9.755444,   0.051333,  -0.543513, -32.361064,  -0.353267,   0.017490,  -0.860860,  -0.958159, -172.500000, -799.500000, -402.000000,  -0.478804,  89.817920,  -9.186656,   0.706153,   0.703440,  -0.059483,  -0.053773, 
23910,   0.075365,   9.835947,   0.099075,  -0.610615, -32.207958,  -0.402537,   0.019875,  -0.862852,  -0.944871, -171.000000, -799.500000, -397.500000,  -0.474374,  89.809272,  -9.511173,   0.706052,   0.703221,  -0.061444,  -0.055805, 
23911,   0.094507,   9.791291,   0.130532,  -0.541073, -32.111928,  -0.340111,   0.005197,  -0.868731,  -0.948366, -178.500000, -801.000000, -399.000000,  -0.475657,  89.794768,  -9.834361,   0.705991,   0.702964,  -0.063428,  -0.057797, 
23912,   0.064621,   9.770436,   0.042295,  -0.569307, -31.883668,  -0.365377,  -0.005335,  -0.860037,  -0.954990, -184.500000, -798.000000, -402.000000,  -0.466653,  89.788656, -10.156526,   0.705849,   0.702742,  -0.065345,  -0.059839, 
23913,  -0.012698,   9.841286,   0.174029,  -0.604498, -31.596370,  -0.444788,   0.001161,  -0.853069,  -0.964135, -181.500000, -796.500000, -405.000000,  -0.457972,  89.773560, -10.475646,   0.705764,   0.702465,  -0.067240,  -0.061867, 
23914,   0.059697,   9.655093,  -0.064311,  -0.561633, -31.108828,  -0.374734,   0.000257,  -0.865561,  -0.970405, -181.500000, -801.000000, -406.500000,  -0.457391,  89.774992, -10.791451,   0.705583,   0.702288,  -0.069173,  -0.063814, 
23915,   0.126433,   9.775567,  -0.062224,  -0.030330, -30.823042,  -0.302883,  -0.005539,  -0.866465,  -0.969757, -184.500000, -801.000000, -406.500000,  -0.455831,  89.759904, -11.102928,   0.705505,   0.702011,  -0.071064,  -0.065751, 
23916,   0.025966,   9.878997,   0.147786,  -0.612145, -30.617390,  -0.357856,  -0.007361,  -0.853609,  -0.967701, -186.000000, -796.500000, -406.500000,  -0.454581,  89.760536, -11.411965,   0.705320,   0.701821,  -0.072950,  -0.067661, 
23917,   0.107738,   9.866987,   0.072256,  -0.555261, -30.074876,  -0.356293,  -0.008266,  -0.866101,  -0.973971, -186.000000, -801.000000, -408.000000,  -0.456486,  89.758152, -11.717148,   0.705146,   0.701602,  -0.074828,  -0.069528, 
23918,   0.070678,   9.842749,   0.158717,  -0.869650, -29.736106,  -0.353738,  -0.008983,  -0.874972,  -0.975126, -186.000000, -804.000000, -408.000000,  -0.450690,  89.757432, -12.018466,   0.704961,   0.701401,  -0.076636,  -0.071418, 
23919,   0.067657,   9.803498,  -0.018971,  -0.704350, -29.523096,  -0.374241,  -0.013361,  -0.860940,  -0.981820, -189.000000, -799.500000, -411.000000,  -0.449011,  89.764848, -12.316964,   0.704729,   0.701250,  -0.078458,  -0.073260, 
23920,   0.111351,   9.753180,  -0.065892,  -0.335207, -29.514454,  -0.256883,  -0.016681,  -0.836408,  -0.996435, -192.000000, -792.000000, -417.000000,  -0.452556,  89.762032, -12.614100,   0.704565,   0.701032,  -0.080297,  -0.075068, 
23921,   0.061432,   9.770994,  -0.004285,  -0.499181, -29.612388,  -0.347459,  -0.020296,  -0.845730,  -0.997266, -193.500000, -795.000000, -417.000000,  -0.449928,  89.764880, -12.912113,   0.704342,   0.700834,  -0.082105,  -0.076914, 
23922,   0.147927,   9.793135,  -0.023101,  -0.450302, -29.870186,  -0.290580,  -0.025124,  -0.863561,  -0.975986, -195.000000, -799.500000, -409.500000,  -0.459168,  89.767000, -13.211463,   0.704127,   0.700619,  -0.083993,  -0.078695, 
23923,   0.089986,   9.802631,   0.081522,  -0.642561, -30.207772,  -0.289993,  -0.019312,  -0.859851,  -0.966982, -192.000000, -798.000000, -406.500000,  -0.459368,  89.762536, -13.513798,   0.703944,   0.700367,  -0.085839,  -0.080554, 
23924,   0.124424,   9.813811,   0.031032,  -0.612700, -30.670678,  -0.341403,  -0.015713,  -0.853335,  -0.975804, -190.500000, -796.500000, -409.500000,  -0.468399,  89.760352, -13.820445,   0.703751,   0.700119,  -0.087768,  -0.082385, 
23925,   0.109938,   9.816186,   0.057484,  -0.562813, -30.830744,  -0.308885,  -0.021167,  -0.852609,  -0.984231, -193.500000, -796.500000, -412.500000,  -0.467466,  89.753640, -14.130309,   0.703571,   0.699844,  -0.089650,  -0.084299, 
23926,   0.027395,   9.823073,   0.029135,  -0.770465, -30.990458,  -0.322714,  -0.029161,  -0.847899,  -0.991756, -198.000000, -795.000000, -415.500000,  -0.466921,  89.760080, -14.441242,   0.703292,   0.699630,  -0.091549,  -0.086205, 
23927,   0.072481,   9.792289,  -0.039008,  -0.769062, -30.848124,  -0.320169,  -0.027898,  -0.830971,  -0.984908, -198.000000, -789.000000, -414.000000,  -0.466116,  89.765984, -14.752967,   0.703015,   0.699413,  -0.093451,  -0.088118, 
23928,   0.119805,   9.782655,  -0.045744,  -0.298792, -31.053792,  -0.318642,  -0.034598,  -0.844367,  -0.990530, -201.000000, -793.500000, -415.500000,  -0.462615,  89.761208, -15.064280,   0.702802,   0.699132,  -0.095326,  -0.090053, 
23929,   0.046376,   9.821734,   0.072358,  -0.597032, -30.831064,  -0.387594,  -0.044213,  -0.861020,  -1.005481, -205.500000, -799.500000, -420.000000,  -0.460847,  89.761384, -15.375659,   0.702560,   0.698881,  -0.097216,  -0.091974, 
23930,   0.127180,   9.820774,   0.094205,  -0.699682, -30.795388,  -0.414200,  -0.038588,  -0.860931,  -1.001592, -202.500000, -799.500000, -418.500000,  -0.466764,  89.759848, -15.686903,   0.702318,   0.698596,  -0.099148,  -0.093847, 
23931,   0.097650,   9.831693,   0.007829,  -0.430941, -30.528826,  -0.354286,  -0.037154,  -0.843189,  -0.999282, -202.500000, -793.500000, -418.500000,  -0.465707,  89.753096, -15.995648,   0.702097,   0.698280,  -0.101018,  -0.095750, 
23932,   0.044331,   9.905366,   0.227613,  -0.826734, -30.617170,  -0.412434,  -0.033898,  -0.838302,  -0.999028, -201.000000, -792.000000, -418.500000,  -0.461464,  89.745608, -16.302750,   0.701880,   0.697964,  -0.102856,  -0.097664, 
23933,   0.080329,   9.801462,   0.095613,  -0.733109, -30.697312,  -0.386717,  -0.040565,  -0.846084,  -0.985345, -204.000000, -793.500000, -414.000000,  -0.462541,  89.740592, -16.610657,   0.701651,   0.697658,  -0.104734,  -0.099548, 
23934,   0.039741,   9.763368,   0.013252,  -0.648085, -30.777398,  -0.352392,  -0.049976,  -0.856309,  -0.985528, -208.500000, -796.500000, -414.000000,  -0.452939,  89.736712, -16.919538,   0.701401,   0.697365,  -0.106553,  -0.101502, 
23935,   0.136340,   9.747694,  -0.030890,  -0.522216, -31.071132,  -0.330115,  -0.054154,  -0.876495,  -1.001704, -210.000000, -804.000000, -418.500000,  -0.456365,  89.729296, -17.230744,   0.701163,   0.697016,  -0.108459,  -0.103391, 
23936,   0.096150,   9.796782,   0.035531,  -0.543012, -31.435748,  -0.319416,  -0.059095,  -0.873325,  -1.023744, -213.000000, -804.000000, -426.000000,  -0.456099,  89.724656, -17.545568,   0.700901,   0.696684,  -0.110367,  -0.105323, 
23937,   0.125744,   9.841318,   0.172701,  -0.794376, -31.684640,  -0.396231,  -0.060200,  -0.851599,  -1.020532, -214.500000, -796.500000, -426.000000,  -0.464058,  89.719448, -17.863140,   0.700647,   0.696338,  -0.112342,  -0.107222, 
23938,   0.155824,   9.745133,   0.032990,  -0.839048, -31.853350,  -0.356205,  -0.062723,  -0.844809,  -1.009978, -216.000000, -793.500000, -423.000000,  -0.471416,  89.719360, -18.183516,   0.700359,   0.696020,  -0.114334,  -0.109137, 
23939,   0.100763,   9.667219,  -0.212981,  -0.627512, -32.164974,  -0.315897,  -0.067647,  -0.838833,  -1.022365, -219.000000, -792.000000, -427.500000,  -0.477020,  89.735520, -18.506464,   0.699953,   0.695785,  -0.116345,  -0.111060, 
23940,   0.123630,   9.780458,   0.173233,  -0.347427, -32.494640,  -0.292560,  -0.062568,  -0.846801,  -1.024168, -216.000000, -795.000000, -427.500000,  -0.474802,  89.711232, -18.831594,   0.699774,   0.695300,  -0.118280,  -0.113082, 
23941,   0.023378,   9.742973,  -0.106096,  -0.455311, -33.011142,  -0.450875,  -0.059467,  -0.839922,  -1.009725, -214.500000, -792.000000, -423.000000,  -0.482110,  89.727248, -19.161392,   0.699357,   0.695047,  -0.120341,  -0.115035, 
23942,   0.153593,   9.774948,  -0.106874,  -0.553766, -33.383602,  -0.267112,  -0.076512,  -0.841002,  -1.016856, -223.500000, -792.000000, -426.000000,  -0.484708,  89.733120, -19.495804,   0.698991,   0.694732,  -0.122392,  -0.117054, 
23943,   0.131597,   9.850294,   0.169799,  -0.521779, -34.034816,  -0.418544,  -0.085924,  -0.851228,  -1.017039, -228.000000, -795.000000, -426.000000,  -0.490507,  89.718064, -19.834268,   0.698741,   0.694271,  -0.124463,  -0.119100, 
23944,   0.145095,   9.848389,   0.141571,  -0.597951, -34.407340,  -0.433737,  -0.088276,  -0.843622,  -1.011022, -229.500000, -792.000000, -424.500000,  -0.498111,  89.714320, -20.178262,   0.698403,   0.693855,  -0.126588,  -0.121154, 
23945,   0.158957,   9.897962,   0.182101,  -0.750534, -34.777408,  -0.387842,  -0.086641,  -0.860098,  -1.018194, -228.000000, -798.000000, -426.000000,  -0.505315,  89.709576, -20.525760,   0.698068,   0.693431,  -0.128730,  -0.123232, 
23946,   0.154731,   9.886694,   0.175898,  -0.786091, -35.180332,  -0.336405,  -0.088309,  -0.849235,  -1.030327, -229.500000, -795.000000, -430.500000,  -0.514629,  89.702448, -20.877500,   0.697746,   0.692984,  -0.130908,  -0.125327, 
23947,   0.138518,   9.790514,   0.100040,  -0.832085, -35.315208,  -0.444710,  -0.081641,  -0.841453,  -1.044010, -226.500000, -793.500000, -435.000000,  -0.520849,  89.697176, -21.232212,   0.697395,   0.692538,  -0.133084,  -0.127455, 
23948,   0.123016,   9.802189,  -0.071674,  -0.636566, -35.696796,  -0.370043,  -0.087283,  -0.844349,  -1.057552, -229.500000, -795.000000, -439.500000,  -0.528808,  89.698592, -21.589700,   0.696987,   0.692111,  -0.135293,  -0.129579, 
23949,   0.139120,   9.734461,   0.018170,  -0.540863, -35.939640,  -0.266933,  -0.101056,  -0.837735,  -1.054777, -237.000000, -792.000000, -439.500000,  -0.531324,  89.688272, -21.950212,   0.696640,   0.691615,  -0.137473,  -0.131768, 
23950,   0.108470,   9.852046,   0.161366,  -0.607842, -36.266188,  -0.371140,  -0.095806,  -0.844889,  -1.061118, -234.000000, -795.000000, -441.000000,  -0.536462,  89.677264, -22.313084,   0.696298,   0.691110,  -0.139681,  -0.133957, 
23951,   0.032517,   9.782035,   0.088228,  -0.629490, -36.430248,  -0.377194,  -0.086957,  -0.845526,  -1.076280, -229.500000, -796.500000, -445.500000,  -0.533902,  89.671448, -22.678686,   0.695899,   0.690628,  -0.141864,  -0.136201, 
23952,   0.105606,   9.797277,   0.066291,  -0.585558, -36.622184,  -0.394625,  -0.093266,  -0.848872,  -1.062019, -232.500000, -796.500000, -441.000000,  -0.531821,  89.665224, -23.045556,   0.695488,   0.690129,  -0.144052,  -0.138447, 
23953,   0.067623,   9.813319,   0.137297,  -0.724526, -36.777940,  -0.376682,  -0.104654,  -0.844251,  -1.045956, -238.500000, -793.500000, -436.500000,  -0.529702,  89.657488, -23.414110,   0.695083,   0.689618,  -0.146249,  -0.140706, 
23954,   0.096200,   9.841025,   0.076283,  -0.511635, -36.960324,  -0.382412,  -0.109546,  -0.832662,  -1.039037, -241.500000, -789.000000, -435.000000,  -0.530223,  89.651600, -23.785016,   0.694668,   0.689112,  -0.148478,  -0.142961, 
23955,   0.062225,   9.896872,   0.130494,  -0.704383, -37.070972,  -0.459026,  -0.102457,  -0.849864,  -1.037782, -237.000000, -795.000000, -433.500000,  -0.527775,  89.646144, -24.157496,   0.694226,   0.688593,  -0.150694,  -0.145239, 
23956,   0.115436,   9.755475,  -0.038123,  -0.869020, -37.493136,  -0.361004,  -0.110125,  -0.846331,  -1.064035, -241.500000, -795.000000, -442.500000,  -0.533186,  89.659776, -24.532830,   0.693666,   0.688166,  -0.152998,  -0.147461, 
23957,   0.156019,   9.754473,  -0.046214,  -0.408792, -38.052020,  -0.434520,  -0.118493,  -0.848863,  -1.081791, -246.000000, -796.500000, -448.500000,  -0.534476,  89.655984, -24.911860,   0.693201,   0.687633,  -0.155277,  -0.149752, 
23958,   0.101269,   9.821663,  -0.009265,  -0.542907, -38.392628,  -0.416907,  -0.115173,  -0.873396,  -1.067176, -243.000000, -804.000000, -442.500000,  -0.537080,  89.660080, -25.295704,   0.692685,   0.687140,  -0.157603,  -0.152054, 
23959,   0.071718,   9.840189,   0.085412,  -0.970580, -38.525516,  -0.503273,  -0.123322,  -0.866694,  -1.060512, -247.500000, -801.000000, -441.000000,  -0.536781,  89.669448, -25.682824,   0.692101,   0.686652,  -0.159932,  -0.154380, 
23960,   0.142400,   9.773308,  -0.152991,  -0.632094, -38.730532,  -0.432596,  -0.137111,  -0.862887,  -1.067389, -255.000000, -799.500000, -444.000000,  -0.544491,  89.679272, -26.071954,   0.691522,   0.686150,  -0.162322,  -0.156669, 
23961,   0.086107,   9.790865,   0.025682,  -0.524730, -38.968968,  -0.428880,  -0.128822,  -0.833742,  -1.073647, -252.000000, -790.500000, -447.000000,  -0.542046,  89.678336, -26.462504,   0.690992,   0.685596,  -0.164645,  -0.159042, 
23962,   0.122888,   9.780910,  -0.067558,  -0.532937, -39.131276,  -0.473435,  -0.124507,  -0.818355,  -1.081314, -250.500000, -786.000000, -450.000000,  -0.547070,  89.690112, -26.855196,   0.690382,   0.685095,  -0.167041,  -0.161362, 
23963,   0.159830,   9.773884,  -0.041976,  -0.416793, -39.625292,  -0.385200,  -0.128634,  -0.830121,  -1.068532, -252.000000, -789.000000, -445.500000,  -0.551744,  89.691240, -27.251328,   0.689813,   0.684506,  -0.169436,  -0.163716, 
23964,   0.144983,   9.851291,   0.170490,  -0.825410, -40.046732,  -0.449407,  -0.140739,  -0.834370,  -1.053624, -258.000000, -789.000000, -441.000000,  -0.560628,  89.688224, -27.651884,   0.689268,   0.683878,  -0.171877,  -0.166078, 
23965,   0.117527,   9.746934,  -0.145654,  -0.633117, -40.676964,  -0.483628,  -0.153032,  -0.842241,  -1.043830, -264.000000, -790.500000, -438.000000,  -0.568441,  89.700840, -28.057852,   0.688620,   0.683338,  -0.174366,  -0.168455, 
23966,   0.131629,   9.787845,  -0.002570,  -0.501734, -41.177040,  -0.413706,  -0.156322,  -0.852741,  -1.063389, -265.500000, -795.000000, -444.000000,  -0.571705,  89.696544, -28.468582,   0.688035,   0.682671,  -0.176826,  -0.170908, 
23967,  -0.005654,   9.822102,   0.093741,  -0.564022, -41.420740,  -0.550232,  -0.163990,  -0.849208,  -1.089642, -270.000000, -795.000000, -453.000000,  -0.561916,  89.696056, -28.883928,   0.687396,   0.682035,  -0.179239,  -0.173459, 
23968,   0.031367,   9.833576,   0.092320,  -0.719916, -41.532404,  -0.422423,  -0.160529,  -0.837894,  -1.074621, -268.500000, -790.500000, -448.500000,  -0.547616,  89.694592, -29.301000,   0.686753,   0.681398,  -0.181634,  -0.176049, 
23969,  -0.009489,   9.710462,  -0.029052,  -0.590527, -41.479496,  -0.454869,  -0.161230,  -0.843959,  -1.066123, -268.500000, -792.000000, -445.500000,  -0.532972,  89.694344, -29.718010,   0.686088,   0.680755,  -0.184025,  -0.178635, 
23970,  -0.030643,   9.896796,   0.231770,  -0.572651, -41.399200,  -0.401028,  -0.167930,  -0.857353,  -1.071745, -271.500000, -796.500000, -447.000000,  -0.510039,  89.672488, -30.133896,   0.685522,   0.679983,  -0.186321,  -0.181294, 
23971,  -0.031767,   9.784212,   0.081783,  -0.859895, -40.945592,  -0.544083,  -0.170315,  -0.855362,  -1.085034, -273.000000, -796.500000, -451.500000,  -0.496917,  89.667432, -30.548098,   0.684873,   0.679299,  -0.188692,  -0.183857, 
23972,   0.014096,   9.785341,   0.010715,  -0.521611, -40.599296,  -0.516798,  -0.175394,  -0.847394,  -1.083231, -276.000000, -793.500000, -451.500000,  -0.479490,  89.657688, -30.957874,   0.684251,   0.678600,  -0.191003,  -0.186428, 
23973,   0.030620,   9.796370,   0.082256,  -0.776064, -40.269296,  -0.461521,  -0.174148,  -0.833272,  -1.086036, -276.000000, -789.000000, -453.000000,  -0.472913,  89.650512, -31.364500,   0.683606,   0.677877,  -0.193356,  -0.188903, 
23974,   0.058607,   9.765773,  -0.049752,  -0.646658, -40.198104,  -0.397910,  -0.176875,  -0.832909,  -1.090249, -277.500000, -789.000000, -454.500000,  -0.468045,  89.655232, -31.768914,   0.682898,   0.677225,  -0.195725,  -0.191334, 
23975,   0.067651,   9.827417,   0.147471,  -0.800539, -40.135704,  -0.442011,  -0.174694,  -0.841329,  -1.091728, -276.000000, -792.000000, -454.500000,  -0.463542,  89.652608, -32.172722,   0.682234,   0.676530,  -0.198081,  -0.193773, 
23976,   0.045963,   9.737750,  -0.206259,  -0.627820, -40.038280,  -0.447080,  -0.181361,  -0.849111,  -1.078045, -279.000000, -793.500000, -450.000000,  -0.466769,  89.672328, -32.576072,   0.681436,   0.675939,  -0.200514,  -0.196119, 
23977,   0.140913,   9.726945,  -0.004903,  -0.319301, -40.101244,  -0.444800,  -0.193466,  -0.853361,  -1.063137, -285.000000, -793.500000, -445.500000,  -0.464292,  89.666056, -32.978496,   0.680770,   0.675192,  -0.202859,  -0.198535, 
23978,  -0.021186,   9.883396,   0.109077,  -0.718817, -39.700404,  -0.520406,  -0.199124,  -0.859062,  -1.086331, -288.000000, -796.500000, -453.000000,  -0.452231,  89.667896, -33.379872,   0.680042,   0.674513,  -0.205156,  -0.200987, 
23979,   0.040780,   9.849638,   0.014499,  -0.837453, -39.512516,  -0.361722,  -0.204065,  -0.855892,  -1.108371, -291.000000, -796.500000, -460.500000,  -0.444497,  89.681032, -33.778144,   0.679258,   0.673897,  -0.207479,  -0.203374, 
23980,   0.086204,   9.827585,   0.016593,  -0.578749, -39.415636,  -0.435477,  -0.197552,  -0.846119,  -1.107864, -288.000000, -793.500000, -460.500000,  -0.444103,  89.680552, -34.174824,   0.678542,   0.673163,  -0.209804,  -0.205724, 
23981,  -0.015502,   9.791512,  -0.065631,  -0.611915, -39.300040,  -0.459898,  -0.191210,  -0.837159,  -1.102819, -285.000000, -790.500000, -459.000000,  -0.433925,  89.696536, -34.570644,   0.677714,   0.672547,  -0.212097,  -0.208097, 
23982,   0.021969,   9.833360,  -0.088340,  -0.643064, -38.979836,  -0.480661,  -0.206605,  -0.851909,  -1.107469, -292.500000, -795.000000, -460.500000,  -0.425936,  89.707080, -34.963728,   0.676926,   0.671899,  -0.214377,  -0.210450, 
23983,  -0.029231,   9.772134,  -0.101157,  -0.442273, -38.632920,  -0.393959,  -0.218197,  -0.853715,  -1.106173, -298.500000, -795.000000, -460.500000,  -0.410580,  89.711440, -35.353636,   0.676152,   0.671221,  -0.216580,  -0.212834, 
23984,  -0.157046,   9.902302,   0.090372,  -0.771936, -38.098308,  -0.370686,  -0.217651,  -0.845658,  -1.100480, -298.500000, -792.000000, -459.000000,  -0.386582,  89.719736, -35.738632,   0.675334,   0.670579,  -0.218706,  -0.215227, 
23985,  -0.095804,   9.840779,  -0.008360,  -0.695967, -37.378400,  -0.461494,  -0.223072,  -0.839319,  -1.089603, -301.500000, -789.000000, -456.000000,  -0.365266,  89.727032, -36.118224,   0.674537,   0.669937,  -0.220816,  -0.217575, 
23986,  -0.090133,   9.793448,   0.009354,  -0.681654, -36.800252,  -0.468470,  -0.225953,  -0.836964,  -1.079626, -303.000000, -787.500000, -453.000000,  -0.340786,  89.728176, -36.491032,   0.673781,   0.669278,  -0.222856,  -0.219912, 
23987,   0.002377,   9.799399,   0.103293,  -0.763317, -36.373036,  -0.461780,  -0.223226,  -0.837327,  -1.075413, -301.500000, -787.500000, -451.500000,  -0.328648,  89.726432, -36.859168,   0.673052,   0.668567,  -0.224928,  -0.222148, 
23988,  -0.008035,   9.687823,  -0.250958,  -0.409918, -36.231268,  -0.411854,  -0.229055,  -0.843843,  -1.094070, -304.500000, -790.500000, -457.500000,  -0.320060,  89.737968, -37.224628,   0.672252,   0.667927,  -0.227030,  -0.224319, 
23989,   0.038483,   9.834440,   0.247586,  -0.460694, -36.150956,  -0.384877,  -0.236301,  -0.865294,  -1.105384, -307.500000, -798.000000, -460.500000,  -0.310839,  89.720176, -37.587784,   0.671626,   0.667121,  -0.229058,  -0.226539, 
23990,   0.014157,   9.822180,  -0.096668,  -0.720206, -36.355348,  -0.460991,  -0.239371,  -0.866560,  -1.100523, -309.000000, -798.000000, -459.000000,  -0.312237,  89.739584, -37.952988,   0.670800,   0.666508,  -0.231233,  -0.228634, 
23991,   0.182897,   9.674564,  -0.211183,  -0.193913, -36.951876,  -0.326544,  -0.244262,  -0.854971,  -1.093605, -312.000000, -793.500000, -457.500000,  -0.318595,  89.745184, -38.321884,   0.670032,   0.665771,  -0.233423,  -0.230741, 
23992,   0.032690,   9.899074,   0.141358,  -0.373929, -37.824300,  -0.535492,  -0.250604,  -0.863931,  -1.098649, -315.000000, -796.500000, -459.000000,  -0.320087,  89.740104, -38.697384,   0.669301,   0.664967,  -0.235600,  -0.232936, 
23993,   0.210566,   9.852569,  -0.024364,  -0.742894, -38.650344,  -0.458501,  -0.255529,  -0.857955,  -1.111036, -318.000000, -795.000000, -463.500000,  -0.336701,  89.757648, -39.081528,   0.668453,   0.664245,  -0.237963,  -0.235047, 
23994,   0.218147,   9.884879,   0.061878,  -0.566922, -39.958352,  -0.444989,  -0.258256,  -0.857592,  -1.115250, -319.500000, -795.000000, -465.000000,  -0.358199,  89.759576, -39.477220,   0.667676,   0.663390,  -0.240385,  -0.237227, 
23995,   0.228095,   9.899477,   0.133962,  -0.706088, -41.026092,  -0.561225,  -0.264223,  -0.859310,  -1.110064, -322.500000, -795.000000, -463.500000,  -0.381686,  89.756304, -39.883604,   0.666889,   0.662456,  -0.242863,  -0.239460, 
23996,   0.276322,   9.811375,   0.162983,  -0.752613, -41.957744,  -0.499964,  -0.273992,  -0.873970,  -1.110825, -327.000000, -799.500000, -463.500000,  -0.404483,  89.746520, -40.300460,   0.666118,   0.661461,  -0.245382,  -0.241774, 
23997,   0.211271,   9.810827,   0.176268,  -0.807224, -42.564636,  -0.528753,  -0.266933,  -0.856140,  -1.104625, -324.000000, -793.500000, -462.000000,  -0.421198,  89.732744, -40.725432,   0.665340,   0.660439,  -0.247904,  -0.244179, 
23998,   0.287824,   9.781360,   0.177212,  -0.595871, -43.096952,  -0.541685,  -0.271825,  -0.844551,  -1.097707, -327.000000, -789.000000, -460.500000,  -0.438985,  89.711864, -41.155436,   0.664569,   0.659336,  -0.250436,  -0.246614, 
23999,   0.174667,   9.820135,   0.334756,  -0.817608, -43.595936,  -0.416646,  -0.289229,  -0.850067,  -1.105416, -336.000000, -790.500000, -463.500000,  -0.444293,  89.686408, -41.591116,   0.663781,   0.658217,  -0.252915,  -0.249163, 
24000,   0.206731,   9.817802,   0.247977,  -0.713106, -44.140268,  -0.507360,  -0.297565,  -0.846985,  -1.103866, -340.500000, -789.000000, -463.500000,  -0.462234,  89.663104, -42.031636,   0.662998,   0.657071,  -0.255498,  -0.251664, 
24001,   0.143389,   9.789216,   0.187551,  -0.605481, -44.744588,  -0.539152,  -0.286348,  -0.852421,  -1.115392, -334.500000, -792.000000, -466.500000,  -0.464993,  89.638792, -42.478148,   0.662154,   0.655920,  -0.258017,  -0.254283, 
24002,   0.129662,   9.788313,   0.173415,  -0.805625, -45.001820,  -0.485007,  -0.280177,  -0.844276,  -1.105810, -331.500000, -789.000000, -463.500000,  -0.471743,  89.629184, -42.928840,   0.661214,   0.654825,  -0.260610,  -0.256867, 
24003,   0.106258,   9.794347,   0.050949,  -0.577734, -45.402628,  -0.480915,  -0.291923,  -0.844090,  -1.090324, -337.500000, -787.500000, -459.000000,  -0.471677,  89.616936, -43.382940,   0.660266,   0.653722,  -0.263177,  -0.259516, 
24004,   0.152367,   9.765300,   0.070749,  -0.822204, -45.903100,  -0.462523,  -0.303173,  -0.844267,  -1.098103, -343.500000, -787.500000, -462.000000,  -0.476354,  89.618424, -43.841576,   0.659224,   0.652661,  -0.265822,  -0.262126, 
24005,   0.080589,   9.816311,   0.053724,  -0.563516, -46.586244,  -0.571410,  -0.311525,  -0.843993,  -1.106206, -348.000000, -787.500000, -465.000000,  -0.479548,  89.611960, -44.305876,   0.658195,   0.651528,  -0.268465,  -0.264790, 
24006,   0.021590,   9.783763,   0.030967,  -0.919830, -47.302980,  -0.565829,  -0.321107,  -0.855033,  -1.101852, -352.500000, -790.500000, -463.500000,  -0.476065,  89.616304, -44.777344,   0.657073,   0.650457,  -0.271136,  -0.267508, 
24007,   0.072330,   9.675475,  -0.142367,  -0.654997, -48.008936,  -0.493259,  -0.326545,  -0.851500,  -1.100626, -355.500000, -789.000000, -463.500000,  -0.475408,  89.617944, -45.256012,   0.655938,   0.649329,  -0.273850,  -0.270249, 
24008,   0.033010,   9.687150,  -0.014652,  -0.407285, -48.719096,  -0.477039,  -0.329801,  -0.856388,  -1.100880, -357.000000, -790.500000, -463.500000,  -0.467569,  89.606360, -45.742056,   0.654828,   0.648110,  -0.276528,  -0.273099, 
24009,   0.025586,   9.869991,   0.223908,  -0.794774, -49.120632,  -0.505847,  -0.326903,  -0.855936,  -1.101204, -355.500000, -790.500000, -463.500000,  -0.456938,  89.595976, -46.233892,   0.653690,   0.646891,  -0.279224,  -0.275996, 
24010,   0.028675,   9.844601,   0.066209,  -0.666420, -49.470240,  -0.586071,  -0.332732,  -0.862452,  -1.119861, -358.500000, -793.500000, -469.500000,  -0.450635,  89.587712, -46.729700,   0.652518,   0.645642,  -0.281964,  -0.278876, 
24011,   0.052887,   9.788988,   0.189237,  -0.746875, -49.485404,  -0.494395,  -0.341443,  -0.866613,  -1.128541, -363.000000, -795.000000, -472.500000,  -0.441127,  89.577280, -47.226824,   0.651334,   0.644374,  -0.284681,  -0.281782, 
24012,  -0.021156,   9.881892,   0.176551,  -0.798929, -48.971668,  -0.563200,  -0.345634,  -0.848960,  -1.130121, -366.000000, -789.000000, -474.000000,  -0.433264,  89.563760, -47.721972,   0.650176,   0.643089,  -0.287388,  -0.284676, 
24013,  -0.015253,   9.748654,   0.100767,  -0.979539, -48.693012,  -0.465474,  -0.352114,  -0.853120,  -1.111323, -369.000000, -789.000000, -468.000000,  -0.421162,  89.554480, -48.212392,   0.648966,   0.641825,  -0.290043,  -0.287545, 
24014,  -0.049278,   9.872620,   0.140139,  -0.847853, -48.512852,  -0.547852,  -0.352627,  -0.855564,  -1.097710, -369.000000, -789.000000, -463.500000,  -0.407013,  89.543712, -48.699968,   0.647760,   0.640559,  -0.292664,  -0.290409, 
24015,   0.018892,   9.825752,   0.194910,  -0.820489, -48.248856,  -0.516751,  -0.351584,  -0.847870,  -1.115283, -369.000000, -787.500000, -469.500000,  -0.398301,  89.528200, -49.185340,   0.646599,   0.639259,  -0.295290,  -0.293244, 
24016,   0.034137,   9.751938,   0.169531,  -0.896168, -47.998892,  -0.570196,  -0.360262,  -0.846419,  -1.104658, -373.500000, -786.000000, -466.500000,  -0.391049,  89.522672, -49.669396,   0.645357,   0.637985,  -0.297929,  -0.296023, 
24017,   0.079601,   9.844454,   0.175900,  -0.662695, -47.929160,  -0.552848,  -0.363689,  -0.852120,  -1.100374, -375.000000, -787.500000, -465.000000,  -0.385962,  89.504248, -50.150748,   0.644197,   0.636637,  -0.300529,  -0.298808, 
24018,   0.105527,   9.784900,   0.085101,  -0.733616, -47.761780,  -0.517777,  -0.360278,  -0.849225,  -1.114311, -373.500000, -787.500000, -469.500000,  -0.392843,  89.499072, -50.631296,   0.642995,   0.635334,  -0.303226,  -0.301487, 
24019,   0.104307,   9.798755,   0.227987,  -0.547090, -47.529164,  -0.561873,  -0.363689,  -0.852120,  -1.100374, -375.000000, -787.500000, -465.000000,  -0.397997,  89.473400, -51.109156,   0.641877,   0.633895,  -0.305828,  -0.304201, 
24020,   0.037882,   9.821865,   0.126590,  -0.885779, -46.947236,  -0.566870,  -0.367271,  -0.855829,  -1.081900, -376.500000, -787.500000, -459.000000,  -0.396956,  89.467952, -51.584012,   0.640639,   0.632595,  -0.308432,  -0.306878, 
24021,   0.093468,   9.826155,   0.135269,  -0.468256, -46.506436,  -0.577646,  -0.382462,  -0.864151,  -1.071783, -384.000000, -789.000000, -456.000000,  -0.399629,  89.443096, -52.052744,   0.639531,   0.631192,  -0.310970,  -0.309554, 
24022,  -0.017911,   9.838772,   0.266644,  -1.009144, -45.606144,  -0.463174,  -0.396593,  -0.861973,  -1.069585, -391.500000, -787.500000, -456.000000,  -0.390088,  89.434632, -52.516000,   0.638286,   0.629899,  -0.313438,  -0.312207, 
24023,   0.029678,   9.805073,   0.170779,  -0.627476, -45.233844,  -0.548087,  -0.390064,  -0.849393,  -1.059426, -388.500000, -783.000000, -453.000000,  -0.378807,  89.410440, -52.972260,   0.637140,   0.628543,  -0.315815,  -0.314875, 
24024,  -0.060353,   9.778844,   0.171271,  -0.784128, -44.575196,  -0.546814,  -0.397294,  -0.868038,  -1.061088, -391.500000, -789.000000, -453.000000,  -0.363339,  89.400952, -53.422980,   0.635916,   0.627297,  -0.318178,  -0.317496, 
24025,   0.069496,   9.771414,   0.070725,  -0.496622, -44.157752,  -0.544933,  -0.403669,  -0.882611,  -1.085437, -394.500000, -795.000000, -460.500000,  -0.360591,  89.388960, -53.868084,   0.634726,   0.625988,  -0.320558,  -0.320007, 
24026,  -0.063930,   9.821911,   0.217897,  -0.671223, -43.579180,  -0.553983,  -0.395942,  -0.864329,  -1.107040, -391.500000, -790.500000, -468.000000,  -0.347507,  89.375304, -54.308596,   0.633529,   0.624712,  -0.322852,  -0.322554, 
24027,  -0.024873,   9.697046,  -0.089962,  -0.505250, -43.294912,  -0.555807,  -0.397406,  -0.847038,  -1.104406, -393.000000, -784.500000, -468.000000,  -0.341216,  89.379192, -54.744744,   0.632266,   0.623526,  -0.325207,  -0.324990, 
24028,  -0.039989,   9.896685,   0.313142,  -0.511295, -43.036904,  -0.551290,  -0.406784,  -0.851651,  -1.085284, -397.500000, -784.500000, -462.000000,  -0.331664,  89.348328, -55.177716,   0.631168,   0.622145,  -0.327417,  -0.327515, 
24029,  -0.014502,   9.820064,   0.150395,  -0.887311, -42.839984,  -0.482310,  -0.412939,  -0.856989,  -1.085214, -400.500000, -786.000000, -462.000000,  -0.325596,  89.353576, -55.609664,   0.629881,   0.620950,  -0.329741,  -0.329908, 
24030,  -0.010456,   9.873305,   0.110330,  -0.502547, -43.019080,  -0.542174,  -0.416879,  -0.865134,  -1.067317, -402.000000, -787.500000, -456.000000,  -0.315667,  89.334728, -56.040128,   0.628716,   0.619638,  -0.331965,  -0.332383, 
24031,   0.020136,   9.964078,   0.484784,  -1.101650, -42.803872,  -0.475327,  -0.423905,  -0.877352,  -1.054212, -405.000000, -790.500000, -451.500000,  -0.304923,  89.313264, -56.470660,   0.627548,   0.618301,  -0.334169,  -0.334864, 
24032,  -0.067430,   9.752051,  -0.023553,  -0.631383, -43.027864,  -0.578561,  -0.423409,  -0.877715,  -1.077477, -405.000000, -792.000000, -459.000000,  -0.294745,  89.308992, -56.901328,   0.626273,   0.617042,  -0.336420,  -0.337284, 
24033,   0.014367,  10.011959,   0.490085,  -0.783860, -42.813968,  -0.567738,  -0.428863,  -0.876989,  -1.085904, -408.000000, -792.000000, -462.000000,  -0.285500,  89.272760, -57.331128,   0.625175,   0.615610,  -0.338576,  -0.339790, 
24034,   0.052665,   9.745517,   0.051697,  -0.912840, -42.831476,  -0.569470,  -0.429563,  -0.883053,  -1.077406, -408.000000, -793.500000, -459.000000,  -0.285724,  89.279656, -57.761548,   0.623863,   0.614376,  -0.340911,  -0.342117, 
24035,   0.042839,   9.692134,   0.179653,  -0.509789, -42.876552,  -0.504910,  -0.429376,  -0.879432,  -1.072291, -408.000000, -792.000000, -457.500000,  -0.286119,  89.250472, -58.191112,   0.622725,   0.612926,  -0.343121,  -0.344534, 
24036,   0.069257,   9.744780,   0.093722,  -0.859695, -42.653264,  -0.487391,  -0.440780,  -0.877617,  -1.065880, -414.000000, -790.500000, -456.000000,  -0.286214,  89.254552, -58.620896,   0.621408,   0.611657,  -0.345431,  -0.346855, 
24037,   0.083973,   9.708302,  -0.025406,  -0.388607, -42.778960,  -0.501841,  -0.448057,  -0.864036,  -1.072251, -418.500000, -786.000000, -459.000000,  -0.291390,  89.242816, -59.050196,   0.620192,   0.610289,  -0.347718,  -0.349194, 
24038,   0.075094,   9.803063,   0.198264,  -0.780277, -42.430860,  -0.447753,  -0.449833,  -0.883407,  -1.065486, -418.500000, -792.000000, -456.000000,  -0.297201,  89.235984, -59.478344,   0.618927,   0.608921,  -0.350000,  -0.351493, 
24039,   0.089764,   9.732623,  -0.087313,  -0.601120, -42.555988,  -0.482815,  -0.454490,  -0.900423,  -1.048744, -420.000000, -796.500000, -450.000000,  -0.307764,  89.253000, -59.905844,   0.617552,   0.607669,  -0.352378,  -0.353690, 
24040,   0.055927,   9.837012,   0.098997,  -0.704221, -42.555580,  -0.449131,  -0.464119,  -0.879237,  -1.049098, -426.000000, -789.000000, -451.500000,  -0.316729,  89.248936, -60.332832,   0.616286,   0.606308,  -0.354679,  -0.355958, 
24041,   0.107822,   9.735532,  -0.101931,  -0.851354, -42.670852,  -0.444097,  -0.463418,  -0.873172,  -1.057596, -426.000000, -787.500000, -454.500000,  -0.324782,  89.280480, -60.761584,   0.614804,   0.605117,  -0.357085,  -0.358118, 
24042,   0.030007,   9.846741,   0.007925,  -0.393267, -43.250416,  -0.501565,  -0.453820,  -0.859326,  -1.052298, -421.500000, -783.000000, -453.000000,  -0.331550,  89.283744, -61.192820,   0.613452,   0.603761,  -0.359404,  -0.360381, 
24043,  -0.024598,   9.790325,  -0.042684,  -0.733389, -43.765208,  -0.427429,  -0.469010,  -0.867648,  -1.042180, -429.000000, -784.500000, -450.000000,  -0.326379,  89.311344, -61.629952,   0.611916,   0.602554,  -0.361767,  -0.362661, 
24044,  -0.037055,   9.861523,   0.149075,  -0.627648, -44.379784,  -0.532915,  -0.484747,  -0.884026,  -1.037755, -436.500000, -789.000000, -448.500000,  -0.316346,  89.308976, -62.072340,   0.610494,   0.601174,  -0.364030,  -0.365082, 
24045,  -0.109562,   9.852640,  -0.000192,  -0.807249, -45.180148,  -0.566520,  -0.487082,  -0.873615,  -1.022086, -438.000000, -784.500000, -444.000000,  -0.305008,  89.324240, -62.522804,   0.608933,   0.599851,  -0.366376,  -0.367486, 
24046,  -0.017520,   9.838346,   0.176942,  -0.419201, -45.892912,  -0.609720,  -0.486895,  -0.869994,  -1.016971, -438.000000, -783.000000, -442.500000,  -0.296595,  89.302952, -62.979740,   0.607551,   0.598303,  -0.368654,  -0.370026, 
24047,  -0.015100,   9.854856,   0.191135,  -1.058158, -46.228964,  -0.509592,  -0.487612,  -0.878865,  -1.018126, -438.000000, -786.000000, -442.500000,  -0.288204,  89.313184, -63.442816,   0.605973,   0.596893,  -0.371060,  -0.372491, 
24048,  -0.097149,   9.846363,   0.168682,  -0.478902, -46.710892,  -0.555287,  -0.498299,  -0.868179,  -1.010560, -444.000000, -781.500000, -441.000000,  -0.276044,  89.288352, -63.909740,   0.604534,   0.595279,  -0.373340,  -0.375098, 
24049,  -0.005263,   9.842254,   0.271594,  -1.026571, -46.519968,  -0.576301,  -0.504812,  -0.877953,  -1.011067, -447.000000, -784.500000, -441.000000,  -0.264721,  89.284824, -64.377984,   0.602981,   0.593772,  -0.375700,  -0.377638, 
24050,  -0.047198,   9.770188,   0.030904,  -0.676563, -46.719128,  -0.514096,  -0.503957,  -0.873881,  -1.033754, -447.000000, -784.500000, -448.500000,  -0.259439,  89.285000, -64.846648,   0.601417,   0.592252,  -0.378101,  -0.380129, 
24051,   0.103601,   9.748603,   0.117063,  -0.451531, -47.010840,  -0.439440,  -0.500717,  -0.871800,  -1.043154, -445.500000, -784.500000, -451.500000,  -0.268728,  89.268328, -65.316664,   0.599962,   0.590571,  -0.380515,  -0.382596, 
24052,   0.202878,   9.813807,   0.180339,  -0.766961, -47.172464,  -0.488334,  -0.505546,  -0.889630,  -1.021875, -447.000000, -789.000000, -444.000000,  -0.285955,  89.262736, -65.789496,   0.598468,   0.588911,  -0.383022,  -0.385000, 
24053,   0.222153,   9.810546,  -0.119650,  -0.595807, -47.714480,  -0.484475,  -0.510437,  -0.878041,  -1.014957, -450.000000, -784.500000, -442.500000,  -0.310120,  89.278960, -66.266016,   0.596861,   0.587318,  -0.385649,  -0.387308, 
24054,   0.191633,   9.801196,  -0.003884,  -0.713605, -47.875932,  -0.604680,  -0.521483,  -0.871791,  -1.007968, -456.000000, -781.500000, -441.000000,  -0.332803,  89.294208, -66.745788,   0.595226,   0.585693,  -0.388270,  -0.389631, 
24055,   0.148774,   9.854926,  -0.098134,  -0.765810, -47.935836,  -0.552168,  -0.522167,  -0.875049,  -0.989818, -456.000000, -781.500000, -435.000000,  -0.347611,  89.322000, -67.227168,   0.593496,   0.584153,  -0.390901,  -0.391960, 
24056,   0.069133,   9.850192,  -0.027190,  -0.842791, -47.920300,  -0.641704,  -0.526312,  -0.889622,  -0.986689, -457.500000, -786.000000, -433.500000,  -0.356965,  89.344504, -67.707968,   0.591765,   0.582593,  -0.393475,  -0.394323, 
24057,   0.043019,   9.796235,  -0.225389,  -0.734615, -47.856476,  -0.480791,  -0.535193,  -0.894597,  -0.990832, -462.000000, -787.500000, -435.000000,  -0.360366,  89.380008, -68.189400,   0.589929,   0.581100,  -0.396055,  -0.396662, 
24058,   0.030517,   9.830525,   0.146016,  -0.824008, -47.741972,  -0.551299,  -0.536470,  -0.873685,  -0.983083, -463.500000, -780.000000, -433.500000,  -0.358875,  89.379344, -68.669128,   0.588266,   0.579444,  -0.398478,  -0.399141, 
24059,   0.013661,   9.794756,  -0.213543,  -0.729628, -47.350368,  -0.471744,  -0.545351,  -0.878661,  -0.987226, -468.000000, -781.500000, -435.000000,  -0.352889,  89.418040, -69.147600,   0.586379,   0.577994,  -0.400999,  -0.401489, 
24060,  -0.102398,   9.870288,   0.027020,  -0.626678, -46.888360,  -0.533959,  -0.549512,  -0.896040,  -0.993750, -469.500000, -787.500000, -436.500000,  -0.344142,  89.421632, -69.620480,   0.584664,   0.576380,  -0.403346,  -0.403934, 
24061,  -0.067584,   9.817506,  -0.123904,  -1.089667, -45.934124,  -0.466020,  -0.546614,  -0.895588,  -0.994074, -468.000000, -787.500000, -436.500000,  -0.329401,  89.462368, -70.087352,   0.582763,   0.574997,  -0.405765,  -0.406246, 
24062,  -0.155667,   9.776190,  -0.099736,  -0.423783, -45.474412,  -0.532712,  -0.548983,  -0.890790,  -0.997710, -469.500000, -786.000000, -438.000000,  -0.312225,  89.465432, -70.546040,   0.581056,   0.573446,  -0.407987,  -0.408651, 
24063,  -0.072837,   9.894081,  -0.050448,  -1.030496, -44.590304,  -0.518853,  -0.548624,  -0.886355,  -0.997132, -469.500000, -784.500000, -438.000000,  -0.295498,  89.496864, -70.998672,   0.579217,   0.572044,  -0.410275,  -0.410911, 
24064,  -0.148140,   9.772174,  -0.181125,  -0.539220, -44.112864,  -0.483685,  -0.551539,  -0.889613,  -1.006461, -471.000000, -786.000000, -441.000000,  -0.275720,  89.511064, -71.444664,   0.577477,   0.570591,  -0.412453,  -0.413213, 
24065,  -0.017344,   9.863268,   0.013944,  -0.896410, -43.380808,  -0.519095,  -0.555854,  -0.904999,  -0.998794, -472.500000, -790.500000, -438.000000,  -0.263383,  89.532360, -71.884136,   0.575740,   0.569160,  -0.414656,  -0.415412, 
24066,  -0.114873,   9.796090,  -0.085844,  -0.629188, -42.787136,  -0.469825,  -0.567430,  -0.903999,  -0.987846, -478.500000, -789.000000, -435.000000,  -0.247679,  89.548008, -72.317352,   0.574026,   0.567719,  -0.416779,  -0.417602, 
24067,  -0.021886,   9.807614,   0.012298,  -0.828201, -41.878372,  -0.476178,  -0.575561,  -0.894490,  -0.971529, -483.000000, -784.500000, -430.500000,  -0.235710,  89.563512, -72.743128,   0.572352,   0.566290,  -0.418884,  -0.419737, 
24068,  -0.114570,   9.686291,  -0.147884,  -0.221097, -41.471740,  -0.511582,  -0.575887,  -0.893313,  -0.952801, -483.000000, -783.000000, -424.500000,  -0.222446,  89.565208, -73.161808,   0.570766,   0.564821,  -0.420897,  -0.421890, 
24069,   0.030779,   9.854838,   0.206297,  -0.764823, -40.866224,  -0.442026,  -0.570482,  -0.902458,  -0.973332, -480.000000, -787.500000, -430.500000,  -0.213969,  89.559496, -73.575176,   0.569229,   0.563294,  -0.422862,  -0.424003, 
24070,  -0.121112,   9.819007,  -0.002662,  -0.582624, -40.678880,  -0.449261,  -0.579534,  -0.908248,  -0.972937, -484.500000, -789.000000, -430.500000,  -0.195918,  89.559184, -73.984680,   0.567645,   0.561845,  -0.424782,  -0.426124, 
24071,  -0.041318,   9.823080,   0.210459,  -0.842007, -40.186192,  -0.477209,  -0.590393,  -0.898377,  -0.960834, -490.500000, -784.500000, -427.500000,  -0.185622,  89.553520, -74.391240,   0.566125,   0.560351,  -0.426705,  -0.428212, 
24072,  -0.143274,   9.788695,  -0.178127,  -0.453861, -39.825504,  -0.511007,  -0.581512,  -0.893402,  -0.956691, -486.000000, -783.000000, -426.000000,  -0.168326,  89.569136, -74.793960,   0.564474,   0.558989,  -0.428644,  -0.430224, 
24073,  -0.014910,   9.827297,   0.145610,  -0.649585, -39.253608,  -0.481729,  -0.587992,  -0.897562,  -0.937893, -489.000000, -783.000000, -420.000000,  -0.162148,  89.563912, -75.190944,   0.562979,   0.557494,  -0.430525,  -0.432223, 
24074,  -0.052585,   9.738880,  -0.281354,  -0.463844, -39.077652,  -0.393395,  -0.602840,  -0.904256,  -0.936850, -496.500000, -784.500000, -420.000000,  -0.150364,  89.596456, -75.585288,   0.561289,   0.556216,  -0.432510,  -0.434095, 
24075,  -0.036661,   9.886453,   0.088308,  -0.501351, -38.562636,  -0.593529,  -0.608824,  -0.908780,  -0.941317, -499.500000, -786.000000, -421.500000,  -0.148274,  89.592872, -75.975200,   0.559825,   0.554739,  -0.434381,  -0.436031, 
24076,  -0.037136,   9.782395,  -0.199766,  -0.436504, -38.054888,  -0.427140,  -0.609182,  -0.913215,  -0.941895, -499.500000, -787.500000, -421.500000,  -0.140839,  89.622232, -76.360584,   0.558178,   0.553439,  -0.436314,  -0.437830, 
24077,   0.019816,   9.871034,   0.311210,  -0.572115, -37.885908,  -0.495255,  -0.605192,  -0.896650,  -0.930833, -498.000000, -781.500000, -418.500000,  -0.141284,  89.597000, -76.741536,   0.556841,   0.551860,  -0.438056,  -0.439776, 
24078,   0.009802,   9.781779,   0.028976,  -0.455928, -38.286236,  -0.448870,  -0.613699,  -0.894384,  -0.924747, -502.500000, -780.000000, -417.000000,  -0.138181,  89.594040, -77.124416,   0.555376,   0.550395,  -0.439875,  -0.441664, 
24079,   0.065806,   9.861685,   0.472661,  -0.555455, -38.802060,  -0.467834,  -0.623110,  -0.904610,  -0.924930, -507.000000, -783.000000, -417.000000,  -0.145643,  89.543224, -77.511304,   0.554154,   0.548633,  -0.441570,  -0.443697, 
24080,   0.048383,   9.801259,   0.274195,  -0.665262, -39.477628,  -0.420126,  -0.614228,  -0.899634,  -0.920787, -502.500000, -781.500000, -415.500000,  -0.146533,  89.510544, -77.904536,   0.552781,   0.546947,  -0.443322,  -0.445714, 
24081,  -0.024882,   9.872836,   0.393501,  -0.731977, -40.162948,  -0.520066,  -0.619291,  -0.888859,  -0.909331, -505.500000, -777.000000, -412.500000,  -0.141781,  89.467624, -78.305072,   0.551407,   0.545207,  -0.445042,  -0.447833, 
24082,  -0.197064,   9.832099,   0.113632,  -0.664637, -40.287248,  -0.443206,  -0.622564,  -0.896553,  -0.919237, -507.000000, -780.000000, -415.500000,  -0.119100,  89.450272, -78.709712,   0.549824,   0.543646,  -0.446794,  -0.449960, 
24083,  -0.147480,   9.787943,   0.234365,  -0.714349, -40.109392,  -0.475405,  -0.620212,  -0.904158,  -0.925254, -505.500000, -783.000000, -417.000000,  -0.098656,  89.434104, -79.113224,   0.548227,   0.542067,  -0.448539,  -0.452048, 
24084,  -0.214790,   9.772470,   0.122312,  -0.522455, -39.816496,  -0.520306,  -0.620008,  -0.897730,  -0.910486, -505.500000, -780.000000, -412.500000,  -0.071353,  89.418320, -79.514768,   0.546605,   0.540523,  -0.450242,  -0.454155, 
24085,  -0.062804,   9.815980,   0.227343,  -0.672126, -39.308756,  -0.452013,  -0.627797,  -0.886593,  -0.903244, -510.000000, -775.500000, -411.000000,  -0.059230,  89.402392, -79.912584,   0.545057,   0.538934,  -0.451998,  -0.456174, 
24086,  -0.141233,   9.805717,   0.197244,  -0.387469, -39.185028,  -0.481490,  -0.640294,  -0.900891,  -0.908218, -516.000000, -780.000000, -412.500000,  -0.043990,  89.370928, -80.307256,   0.543572,   0.537288,  -0.453656,  -0.458247, 
24087,   0.069363,   9.839838,   0.455558,  -0.807094, -39.068432,  -0.484042,  -0.634994,  -0.899625,  -0.885601, -513.000000, -778.500000, -405.000000,  -0.044615,  89.336992, -80.700440,   0.542151,   0.535559,  -0.455358,  -0.460236, 
24088,  -0.063314,   9.790665,   0.177159,  -0.286062, -39.354372,  -0.500788,  -0.636958,  -0.922617,  -0.883951, -513.000000, -786.000000, -403.500000,  -0.043067,  89.298128, -81.094704,   0.540740,   0.533813,  -0.457035,  -0.462261, 
24089,   0.195422,   9.831160,   0.398066,  -0.836564, -39.432764,  -0.421216,  -0.641866,  -0.913834,  -0.886685, -516.000000, -783.000000, -405.000000,  -0.061972,  89.267168, -81.490528,   0.539366,   0.532015,  -0.458845,  -0.464168, 
24090,   0.069430,   9.768184,   0.218854,  -0.368676, -39.887756,  -0.467660,  -0.647474,  -0.911116,  -0.880923, -519.000000, -781.500000, -403.500000,  -0.071954,  89.230144, -81.889328,   0.537954,   0.530195,  -0.460585,  -0.466141, 
24091,   0.144221,   9.776674,   0.256598,  -0.826755, -40.189244,  -0.486766,  -0.653800,  -0.917269,  -0.876315, -522.000000, -783.000000, -402.000000,  -0.087323,  89.218920, -82.291880,   0.536423,   0.528455,  -0.462468,  -0.467999, 
24092,   0.026130,   9.780341,   0.130605,  -0.359057, -40.661988,  -0.524824,  -0.662322,  -0.917810,  -0.879880, -526.500000, -783.000000, -403.500000,  -0.090127,  89.195600, -82.698048,   0.534883,   0.526696,  -0.464259,  -0.469982, 
24093,   0.223940,   9.821170,   0.306206,  -0.902726, -40.927480,  -0.500718,  -0.667931,  -0.915091,  -0.874117, -529.500000, -781.500000, -402.000000,  -0.109866,  89.190008, -83.108088,   0.533306,   0.524926,  -0.466211,  -0.471827, 
24094,   0.081191,   9.794239,   0.164074,  -0.455326, -41.702212,  -0.457337,  -0.667573,  -0.910656,  -0.873540, -529.500000, -780.000000, -402.000000,  -0.120832,  89.162664, -83.523688,   0.531755,   0.523054,  -0.468044,  -0.473814, 
24095,   0.256727,   9.762589,   0.276902,  -0.828556, -42.101576,  -0.442435,  -0.667573,  -0.910656,  -0.873540, -529.500000, -780.000000, -402.000000,  -0.145439,  89.152776, -83.944896,   0.530156,   0.521182,  -0.470037,  -0.475695, 
24096,   0.044660,   9.692980,   0.038618,  -0.141016, -42.930940,  -0.536625,  -0.667214,  -0.906220,  -0.872962, -529.500000, -778.500000, -402.000000,  -0.157661,  89.131344, -84.372608,   0.528532,   0.519282,  -0.471953,  -0.477710, 
24097,   0.243371,   9.922362,   0.504715,  -0.968263, -43.222656,  -0.550921,  -0.667589,  -0.913463,  -0.883192, -529.500000, -781.500000, -405.000000,  -0.182979,  89.106456, -84.805320,   0.526933,   0.517267,  -0.473915,  -0.479683, 
24098,   0.053281,   9.786795,   0.096582,  -0.373218, -43.828684,  -0.502916,  -0.677668,  -0.924139,  -0.855572, -534.000000, -783.000000, -396.000000,  -0.190172,  89.088656, -85.242736,   0.525206,   0.515342,  -0.475843,  -0.481732, 
24099,   0.228258,   9.874606,   0.478012,  -1.064097, -44.236724,  -0.587399,  -0.683977,  -0.927486,  -0.841312, -537.000000, -783.000000, -391.500000,  -0.211917,  89.063696, -85.684168,   0.523556,   0.513305,  -0.477824,  -0.483764, 
24100,   0.034189,   9.844694,   0.145463,  -0.476631, -44.735852,  -0.511469,  -0.678181,  -0.926583,  -0.841960, -534.000000, -783.000000, -391.500000,  -0.209337,  89.047456, -86.131384,   0.521721,   0.511369,  -0.479739,  -0.485879, 
24101,   0.082452,   9.921369,   0.436826,  -0.960357, -45.046804,  -0.652866,  -0.680908,  -0.926220,  -0.846174, -535.500000, -783.000000, -393.000000,  -0.222900,  89.023808, -86.581760,   0.519967,   0.509312,  -0.481704,  -0.487962, 
24102,   0.089091,   9.796302,   0.202495,  -0.581689, -45.516384,  -0.499418,  -0.692671,  -0.928841,  -0.840340, -541.500000, -783.000000, -391.500000,  -0.222065,  89.004976, -87.036648,   0.518111,   0.507320,  -0.483643,  -0.490111, 
24103,   0.143898,   9.866754,   0.436657,  -0.970976, -46.114040,  -0.611024,  -0.690286,  -0.930833,  -0.827052, -540.000000, -783.000000, -387.000000,  -0.242194,  88.978136, -87.496744,   0.516340,   0.505163,  -0.485648,  -0.492209, 
24104,   0.129625,   9.779387,   0.171310,  -0.721513, -46.536156,  -0.511341,  -0.692466,  -0.922413,  -0.825573, -541.500000, -780.000000, -387.000000,  -0.248081,  88.968624, -87.962552,   0.514398,   0.503114,  -0.487680,  -0.494316, 
24105,  -0.036672,   9.706688,   0.152513,  -0.582547, -46.782144,  -0.618615,  -0.695023,  -0.921235,  -0.834324, -543.000000, -780.000000, -390.000000,  -0.256575,  88.959520, -88.431168,   0.512454,   0.501043,  -0.489737,  -0.496422, 
24106,   0.108680,   9.793849,   0.349000,  -0.497396, -47.034972,  -0.540941,  -0.704947,  -0.933905,  -0.820894, -547.500000, -783.000000, -385.500000,  -0.262954,  88.929456, -88.901856,   0.510567,   0.498863,  -0.491686,  -0.498622, 
24107,  -0.001631,   9.856436,   0.265007,  -0.572282, -47.475864,  -0.587313,  -0.708170,  -0.933178,  -0.801843, -549.000000, -781.500000, -379.500000,  -0.261313,  88.916832, -89.376216,   0.508543,   0.496772,  -0.493682,  -0.500790, 
24108,   0.070735,   9.837453,   0.428485,  -0.866649, -48.101756,  -0.571699,  -0.707282,  -0.923493,  -0.805225, -549.000000, -778.500000, -381.000000,  -0.267290,  88.891400, -89.855824,   0.506584,   0.494569,  -0.495678,  -0.503004, 
24109,   0.087781,   9.813416,   0.324071,  -0.595975, -49.005912,  -0.597352,  -0.713437,  -0.928831,  -0.805154, -552.000000, -780.000000, -381.000000,  -0.275435,  88.862408, -90.343200,   0.504597,   0.492289,  -0.497682,  -0.505242, 
24110,   0.146756,   9.819258,   0.442679,  -0.903770, -49.557092,  -0.667588,  -0.719420,  -0.933355,  -0.809622, -555.000000, -781.500000, -382.500000,  -0.288557,  88.834992, -90.837960,   0.502583,   0.489956,  -0.499736,  -0.507477, 
24111,   0.081431,   9.774292,   0.085570,  -0.530872, -50.215172,  -0.461466,  -0.728644,  -0.939960,  -0.804690, -559.500000, -783.000000, -381.000000,  -0.296030,  88.831432, -91.339344,   0.500413,   0.487722,  -0.501899,  -0.509662, 
24112,   0.144859,   9.868930,   0.569649,  -0.816618, -50.774864,  -0.641848,  -0.723907,  -0.949557,  -0.797418, -556.500000, -786.000000, -378.000000,  -0.320412,  88.786496, -91.845440,   0.498448,   0.485191,  -0.503947,  -0.511955, 
24113,   0.185449,   9.697108,   0.053834,  -0.634227, -51.122512,  -0.504834,  -0.720992,  -0.946299,  -0.788089, -555.000000, -784.500000, -375.000000,  -0.336112,  88.790632, -92.357672,   0.496206,   0.482880,  -0.506197,  -0.514093, 
24114,   0.141373,   9.804807,   0.316727,  -0.824136, -51.533904,  -0.632209,  -0.729140,  -0.939597,  -0.781425, -559.500000, -781.500000, -373.500000,  -0.359271,  88.773704, -92.873032,   0.494069,   0.480427,  -0.508393,  -0.516304, 
24115,   0.203031,   9.738986,   0.056944,  -0.521388, -51.879188,  -0.560549,  -0.721693,  -0.952363,  -0.779592, -555.000000, -786.000000, -372.000000,  -0.374103,  88.781904, -93.392160,   0.491748,   0.478079,  -0.510656,  -0.518430, 
24116,   0.181029,   9.831704,   0.172778,  -0.920692, -52.039868,  -0.657733,  -0.722831,  -0.936250,  -0.795685, -556.500000, -781.500000, -378.000000,  -0.395917,  88.794344, -93.913960,   0.489430,   0.475704,  -0.512979,  -0.520519, 
24117,   0.139816,   9.833718,   0.097849,  -0.745965, -52.012124,  -0.565385,  -0.730450,  -0.924298,  -0.792981, -561.000000, -777.000000, -378.000000,  -0.404988,  88.811528, -94.436568,   0.487022,   0.473392,  -0.515261,  -0.522631, 
24118,   0.078872,   9.806260,   0.236524,  -0.943227, -52.000200,  -0.641805,  -0.736508,  -0.953443,  -0.759244, -562.500000, -784.500000, -366.000000,  -0.418030,  88.818256, -94.958728,   0.484661,   0.471003,  -0.517494,  -0.524756, 
24119,   0.036263,   9.782637,   0.146026,  -0.447058, -52.191084,  -0.634895,  -0.744844,  -0.950362,  -0.757694, -567.000000, -783.000000, -366.000000,  -0.418669,  88.811448, -95.481304,   0.482300,   0.468612,  -0.519614,  -0.526995, 
24120,   0.027617,   9.844679,   0.308037,  -0.848725, -52.474728,  -0.618251,  -0.761840,  -0.943023,  -0.735868, -576.000000, -778.500000, -360.000000,  -0.426715,  88.797232, -96.005752,   0.479973,   0.466129,  -0.521717,  -0.529225, 
24121,  -0.030325,   9.828279,   0.215201,  -0.650563, -52.795448,  -0.621766,  -0.766123,  -0.952797,  -0.708897, -577.500000, -780.000000, -351.000000,  -0.421572,  88.785328, -96.534000,   0.477553,   0.463693,  -0.523783,  -0.531506, 
24122,  -0.050547,   9.844305,   0.396635,  -0.759627, -53.502968,  -0.635538,  -0.769054,  -0.958861,  -0.727878, -579.000000, -783.000000, -357.000000,  -0.420192,  88.761992, -97.066744,   0.475172,   0.461170,  -0.525827,  -0.533842, 
24123,   0.004327,   9.820429,   0.230208,  -0.745303, -54.556420,  -0.593176,  -0.765814,  -0.956781,  -0.737277, -577.500000, -783.000000, -360.000000,  -0.415054,  88.755744, -97.609384,   0.472633,   0.458666,  -0.527946,  -0.536127, 
24124,   0.047406,   9.786228,   0.342768,  -1.014647, -55.360488,  -0.617197,  -0.763583,  -0.956781,  -0.709798, -576.000000, -781.500000, -351.000000,  -0.416371,  88.746552, -97.576648,   0.472829,   0.458773,  -0.527778,  -0.536029, 
24125,   0.022685,   9.747988,   0.057967,  -0.685346, -56.308976,  -0.588841,  -0.775517,  -0.960216,  -0.699427, -582.000000, -781.500000, -348.000000,  -0.416736,  88.751232, -96.972232,   0.475639,   0.461574,  -0.525382,  -0.533513, 
24126,   0.019872,   9.820931,   0.102324,  -0.916179, -56.989820,  -0.660532,  -0.768491,  -0.947998,  -0.712533, -579.000000, -778.500000, -352.500000,  -0.418976,  88.767672, -96.378464,   0.478333,   0.464341,  -0.523060,  -0.530948, 
24127,   0.091288,   9.812695,   0.069736,  -0.526156, -57.590644,  -0.653373,  -0.760856,  -0.957144,  -0.705585, -574.500000, -781.500000, -349.500000,  -0.425528,  88.772360, -95.802768,   0.481010,   0.466957,  -0.520775,  -0.528495, 
24128,   0.042408,   9.854276,   0.058777,  -1.112004, -57.794212,  -0.715661,  -0.772010,  -0.981127,  -0.679698, -579.000000, -787.500000, -340.500000,  -0.429215,  88.805472, -95.254296,   0.483411,   0.469563,  -0.518697,  -0.526018, 
24129,  -0.046218,   9.873533,   0.065801,  -0.805325, -58.044000,  -0.716720,  -0.768566,  -0.972619,  -0.674329, -577.500000, -784.500000, -339.000000,  -0.426076,  88.817024, -94.748032,   0.485667,   0.471912,  -0.516655,  -0.523837, 
24130,   0.049039,   9.832195,   0.160909,  -1.245482, -58.256164,  -0.655715,  -0.773303,  -0.963023,  -0.681601, -580.500000, -781.500000, -342.000000,  -0.427449,  88.837880, -94.247648,   0.487877,   0.474253,  -0.514699,  -0.521619, 
24131,  -0.100023,   9.689584,  -0.044495,  -0.732919, -58.524120,  -0.637424,  -0.785596,  -0.970893,  -0.671808, -586.500000, -783.000000, -339.000000,  -0.417638,  88.847656, -93.762904,   0.489988,   0.476506,  -0.512683,  -0.519540, 
24132,   0.019516,   9.840503,   0.206728,  -0.595834, -58.560152,  -0.662662,  -0.798043,  -0.976771,  -0.647824, -592.500000, -783.000000, -331.500000,  -0.419136,  88.838464, -93.320088,   0.492036,   0.478437,  -0.510802,  -0.517677, 
24133,   0.074886,   9.847789,   0.298621,  -1.011908, -58.932204,  -0.543312,  -0.794786,  -0.971884,  -0.647570, -591.000000, -781.500000, -331.500000,  -0.413843,  88.835904, -92.903168,   0.493910,   0.480311,  -0.509030,  -0.515924, 
24134,   0.027710,   9.879221,   0.023274,  -1.015435, -59.324660,  -0.750491,  -0.786109,  -0.973337,  -0.658195, -586.500000, -783.000000, -334.500000,  -0.419368,  88.854224, -92.475704,   0.495774,   0.482256,  -0.507336,  -0.513969, 
24135,   0.117097,   9.854469,   0.110087,  -1.105653, -59.732716,  -0.567270,  -0.783040,  -0.972071,  -0.663057, -585.000000, -783.000000, -336.000000,  -0.426167,  88.863656, -92.055584,   0.497642,   0.484121,  -0.505633,  -0.512074, 
24136,   0.035919,   9.885598,   0.072323,  -0.947221, -60.222696,  -0.635150,  -0.780451,  -0.967635,  -0.635001, -583.500000, -780.000000, -327.000000,  -0.431674,  88.879952, -91.686336,   0.499248,   0.485797,  -0.504170,  -0.510376, 
24137,   0.108024,   9.813196,   0.080484,  -0.893761, -60.908144,  -0.707660,  -0.795250,  -0.965909,  -0.605001, -591.000000, -777.000000, -318.000000,  -0.442929,  88.890440, -91.375816,   0.500638,   0.487161,  -0.502952,  -0.508932, 
24138,  -0.068173,   9.831597,   0.103380,  -0.918457, -61.664072,  -0.677848,  -0.806621,  -0.958480,  -0.579285, -597.000000, -772.500000, -310.500000,  -0.438692,  88.885120, -91.990416,   0.497897,   0.484445,  -0.505507,  -0.511643, 
24139,   0.057602,   9.790704,   0.209338,  -0.779108, -62.322272,  -0.600978,  -0.807680,  -0.968981,  -0.571365, -597.000000, -775.500000, -307.500000,  -0.447483,  88.877304, -91.744960,   0.499066,   0.485455,  -0.504474,  -0.510574, 
24140,  -0.066950,   9.884415,   0.296999,  -1.172596, -63.042088,  -0.635507,  -0.814006,  -0.975134,  -0.566756, -600.000000, -777.000000, -306.000000,  -0.444205,  88.870904, -91.517144,   0.500097,   0.486448,  -0.503470,  -0.509628, 
24141,  -0.015475,   9.825804,   0.242457,  -1.074476, -63.549624,  -0.686958,  -0.819427,  -0.968794,  -0.555879, -603.000000, -774.000000, -303.000000,  -0.442185,  88.865176, -91.315296,   0.501010,   0.487319,  -0.502578,  -0.508780, 
24142,   0.087667,   9.788857,   0.184184,  -0.977668, -64.172288,  -0.636033,  -0.817808,  -0.988077,  -0.572703, -601.500000, -781.500000, -307.500000,  -0.449224,  88.859600, -91.098960,   0.502020,   0.488207,  -0.501659,  -0.507824, 
24143,   0.022005,   9.695225,   0.151172,  -0.987135, -65.133080,  -0.653208,  -0.821065,  -0.992964,  -0.572956, -603.000000, -783.000000, -307.500000,  -0.451936,  88.852664, -90.895712,   0.502959,   0.489051,  -0.500772,  -0.506949, 
24144,   0.023131,   9.783301,   0.134716,  -0.892212, -65.942420,  -0.579512,  -0.817075,  -0.976400,  -0.561895, -601.500000, -777.000000, -304.500000,  -0.453819,  88.851280, -90.719824,   0.503750,   0.489804,  -0.500022,  -0.506173, 
24145,  -0.045197,   9.797135,   0.153101,  -0.959172, -66.636160,  -0.583872,  -0.817604,  -0.981649,  -0.557935, -601.500000, -778.500000, -303.000000,  -0.445888,  88.857328, -90.557824,   0.504405,   0.490573,  -0.499321,  -0.505469, 
24146,   0.016460,   9.709000,   0.064976,  -0.903550, -67.099120,  -0.634999,  -0.821032,  -0.987351,  -0.553651, -603.000000, -780.000000, -301.500000,  -0.445160,  88.865064, -90.410280,   0.505020,   0.491254,  -0.498721,  -0.504790, 
24147,  -0.012989,   9.715903,   0.229417,  -1.002506, -67.552528,  -0.626739,  -0.828057,  -0.999568,  -0.540546, -606.000000, -783.000000, -297.000000,  -0.440423,  88.864104, -90.293136,   0.505521,   0.491782,  -0.498195,  -0.504299, 
24148,  -0.098541,   9.726846,  -0.065114,  -0.990956, -67.268360,  -0.717296,  -0.828758,  -1.005633,  -0.532048, -606.000000, -784.500000, -294.000000,  -0.428978,  88.893152, -90.179976,   0.505847,   0.492454,  -0.497789,  -0.503725, 
24149,  -0.125689,   9.783484,   0.042721,  -0.979652, -66.992584,  -0.712272,  -0.840659,  -1.003455,  -0.502372, -612.000000, -781.500000, -285.000000,  -0.418127,  88.909488, -90.113848,   0.506021,   0.492863,  -0.497530,  -0.503410, 
24150,   0.039480,   9.769410,  -0.056974,  -1.036061, -66.591368,  -0.557815,  -0.856021,  -1.012591,  -0.487717, -619.500000, -783.000000, -280.500000,  -0.422164,  88.939016, -90.062256,   0.506139,   0.493200,  -0.497456,  -0.503038, 
24151,  -0.185211,   9.897108,   0.083667,  -1.179796, -66.396292,  -0.747397,  -0.847702,  -1.018479,  -0.498919, -615.000000, -786.000000, -283.500000,  -0.410727,  88.953736, -89.997616,   0.506312,   0.493597,  -0.497193,  -0.502739, 
24152,   0.116476,   9.684137,   0.187869,  -1.086078, -66.440064,  -0.564381,  -0.841360,  -1.009519,  -0.493875, -612.000000, -783.000000, -282.000000,  -0.414551,  88.957016, -89.945024,   0.506543,   0.493822,  -0.496997,  -0.502475, 
24153,  -0.047782,   9.823265,   0.089952,  -1.184221, -66.840964,  -0.729237,  -0.852405,  -1.003269,  -0.486886, -618.000000, -780.000000, -280.500000,  -0.413175,  88.963112, -89.904600,   0.506687,   0.494029,  -0.496842,  -0.502274, 
24154,   0.031195,   9.741599,   0.297043,  -1.113066, -66.564544,  -0.566889,  -0.854741,  -0.992858,  -0.471217, -619.500000, -775.500000, -276.000000,  -0.413893,  88.951136, -89.895528,   0.506781,   0.494012,  -0.496754,  -0.502283, 
24155,  -0.044302,   9.768148,   0.097088,  -1.124652, -66.510004,  -0.731404,  -0.861580,  -1.001454,  -0.452996, -622.500000, -777.000000, -270.000000,  -0.399625,  88.961232, -89.904664,   0.506637,   0.494080,  -0.496775,  -0.502342, 
24156,  -0.048334,   9.834826,   0.229825,  -0.991681, -66.458420,  -0.633290,  -0.868793,  -1.017293,  -0.445006, -625.500000, -781.500000, -267.000000,  -0.394928,  88.947752, -89.933744,   0.506548,   0.493917,  -0.496821,  -0.502550, 
24157,  -0.003970,   9.857772,   0.116335,  -1.366295, -66.248636,  -0.752630,  -0.865895,  -1.016841,  -0.445330, -624.000000, -781.500000, -267.000000,  -0.395390,  88.959560, -89.950584,   0.506426,   0.493894,  -0.496948,  -0.502572, 
24158,   0.062913,   9.767319,   0.063591,  -1.029298, -65.915572,  -0.606654,  -0.860783,  -1.019196,  -0.427828, -621.000000, -781.500000, -261.000000,  -0.394751,  88.962984, -89.993472,   0.506221,   0.493727,  -0.497146,  -0.502750, 
24159,  -0.050373,   9.854792,   0.125954,  -1.085601, -65.648208,  -0.731134,  -0.863803,  -1.012042,  -0.394009, -622.500000, -777.000000, -250.500000,  -0.393526,  88.964920, -90.082872,   0.505813,   0.493351,  -0.497532,  -0.503140, 
24160,   0.073969,   9.802765,   0.044223,  -0.918934, -65.168372,  -0.566054,  -0.869411,  -1.009325,  -0.388246, -625.500000, -775.500000, -249.000000,  -0.399439,  88.971992, -90.173088,   0.505410,   0.492962,  -0.497975,  -0.503479, 
24161,  -0.175528,   9.962755,   0.246275,  -1.305213, -64.698828,  -0.732158,  -0.870487,  -1.022631,  -0.389979, -625.500000, -780.000000, -249.000000,  -0.388923,  88.968368, -90.258528,   0.505003,   0.492620,  -0.498280,  -0.503916, 
24162,   0.057470,   9.708099,   0.142002,  -1.250539, -63.975904,  -0.626847,  -0.867059,  -1.016930,  -0.394263, -624.000000, -778.500000, -250.500000,  -0.397491,  88.972248, -90.326416,   0.504723,   0.492302,  -0.498625,  -0.504160, 
24163,  -0.063616,   9.729156,   0.203934,  -0.925417, -63.331420,  -0.665000,  -0.870487,  -1.022631,  -0.389979, -625.500000, -780.000000, -249.000000,  -0.379179,  88.960160, -90.399776,   0.504373,   0.492010,  -0.498806,  -0.504614, 
24164,  -0.169474,   9.793160,   0.336304,  -1.063871, -62.482336,  -0.720097,  -0.874085,  -1.029147,  -0.381157, -627.000000, -781.500000, -246.000000,  -0.366793,  88.932088, -90.482864,   0.504073,   0.491580,  -0.498984,  -0.505155, 
24165,  -0.194640,   9.837965,   0.449065,  -0.929447, -61.417732,  -0.638780,  -0.873727,  -1.024711,  -0.380580, -627.000000, -780.000000, -246.000000,  -0.340732,  88.892392, -90.561576,   0.503784,   0.491179,  -0.499033,  -0.505787, 
24166,  -0.188399,   9.878510,   0.242384,  -0.984214, -60.498620,  -0.683975,  -0.879506,  -1.022808,  -0.370279, -630.000000, -778.500000, -243.000000,  -0.323975,  88.872352, -90.637648,   0.503461,   0.490834,  -0.499198,  -0.506281, 
24167,  -0.186068,   9.789731,   0.380899,  -1.023137, -59.306096,  -0.602296,  -0.874036,  -1.020728,  -0.352200, -627.000000, -777.000000, -237.000000,  -0.306708,  88.833824, -90.735880,   0.503118,   0.490314,  -0.499373,  -0.506956, 
24168,  -0.173871,   9.916582,   0.391240,  -1.124242, -58.158752,  -0.687461,  -0.868411,  -1.020639,  -0.348310, -624.000000, -777.000000, -235.500000,  -0.288931,  88.793952, -90.828392,   0.502803,   0.489816,  -0.499516,  -0.507613, 
24169,  -0.132545,   9.829456,   0.370308,  -1.076457, -56.989500,  -0.670028,  -0.872897,  -1.036841,  -0.336106, -625.500000, -781.500000, -231.000000,  -0.280530,  88.766272, -90.922000,   0.502472,   0.489325,  -0.499758,  -0.508182, 
24170,  -0.005073,   9.695622,   0.313856,  -0.746618, -55.543392,  -0.506290,  -0.879923,  -1.049058,  -0.323001, -628.500000, -784.500000, -226.500000,  -0.275488,  88.738680, -91.019896,   0.502135,   0.488801,  -0.500033,  -0.508755, 
24171,  -0.067538,   9.816324,   0.229145,  -0.628076, -54.080072,  -0.551510,  -0.885328,  -1.039913,  -0.302470, -631.500000, -780.000000, -220.500000,  -0.268500,  88.725000, -91.127560,   0.501686,   0.488304,  -0.500403,  -0.509318, 
24172,  -0.130460,   9.975483,   0.401046,  -0.923944, -52.643324,  -0.569857,  -0.891107,  -1.038009,  -0.292170, -634.500000, -778.500000, -217.500000,  -0.263456,  88.701320, -91.237096,   0.501281,   0.487748,  -0.500744,  -0.509925, 
24173,  -0.061512,   9.734154,   0.337724,  -0.828115, -51.129608,  -0.431670,  -0.890920,  -1.034388,  -0.287055, -634.500000, -777.000000, -216.000000,  -0.257627,  88.684688, -91.336104,   0.500888,   0.487271,  -0.501069,  -0.510458, 
24174,  -0.069070,   9.822629,   0.160613,  -0.605176, -49.921692,  -0.509288,  -0.885311,  -1.037106,  -0.292817, -631.500000, -778.500000, -217.500000,  -0.255997,  88.682120, -91.405720,   0.500584,   0.486964,  -0.501348,  -0.510783, 
24175,   0.030231,   9.684791,   0.130636,  -0.755839, -48.449164,  -0.421931,  -0.890173,  -1.060549,  -0.290844, -633.000000, -786.000000, -216.000000,  -0.258763,  88.690872, -91.458688,   0.500321,   0.486757,  -0.501623,  -0.510962, 
24176,  -0.086769,   9.956668,   0.254998,  -0.878350, -47.182124,  -0.689901,  -0.891557,  -1.069872,  -0.264196, -633.000000, -787.500000, -207.000000,  -0.252700,  88.683368, -91.542576,   0.499950,   0.486382,  -0.501917,  -0.511385, 
24177,   0.016606,   9.856328,   0.281733,  -0.913540, -45.879240,  -0.478577,  -0.890995,  -1.059009,  -0.248851, -633.000000, -783.000000, -202.500000,  -0.258520,  88.673992, -91.635784,   0.499598,   0.485905,  -0.502294,  -0.511806, 
24178,   0.033710,   9.784014,   0.046270,  -0.486662, -44.868872,  -0.435616,  -0.893005,  -1.049775,  -0.251910, -634.500000, -780.000000, -204.000000,  -0.259626,  88.690000, -91.700840,   0.499242,   0.485683,  -0.502645,  -0.512013, 
24179,   0.095224,   9.764421,   0.102322,  -0.566858, -44.005832,  -0.441473,  -0.892988,  -1.046968,  -0.242257, -634.500000, -778.500000, -201.000000,  -0.276837,  88.702736, -91.770176,   0.498952,   0.485356,  -0.503069,  -0.512184, 
24180,   0.029892,   9.833466,   0.155456,  -0.866267, -43.311320,  -0.446938,  -0.885369,  -1.058921,  -0.244962, -630.000000, -783.000000, -201.000000,  -0.282156,  88.717424, -91.825224,   0.498666,   0.485153,  -0.503390,  -0.512336, 
24181,   0.032675,   9.763195,   0.121199,  -0.755058, -42.493408,  -0.492101,  -0.889139,  -1.066251,  -0.231603, -631.500000, -784.500000, -196.500000,  -0.286201,  88.730936, -91.891416,   0.498330,   0.484902,  -0.503747,  -0.512546, 
24182,   0.026412,   9.776923,   0.062146,  -0.849192, -41.594828,  -0.511985,  -0.897442,  -1.057557,  -0.210748, -636.000000, -780.000000, -190.500000,  -0.290771,  88.748112, -91.976168,   0.497897,   0.484582,  -0.504201,  -0.512819, 
24183,   0.003217,   9.853156,   0.111598,  -0.900960, -40.758768,  -0.558622,  -0.899998,  -1.056379,  -0.219499, -637.500000, -780.000000, -193.500000,  -0.294436,  88.760000, -92.039056,   0.497581,   0.484340,  -0.504535,  -0.513023, 
24184,   0.067501,   9.806383,   0.019980,  -0.919664, -40.037980,  -0.519913,  -0.891646,  -1.056654,  -0.211396, -633.000000, -780.000000, -190.500000,  -0.299784,  88.778472, -92.099072,   0.497257,   0.484131,  -0.504894,  -0.513179, 
24185,   0.073646,   9.819392,   0.000559,  -1.007636, -39.388604,  -0.561563,  -0.884962,  -1.046066,  -0.215427, -630.000000, -777.000000, -192.000000,  -0.305897,  88.805840, -92.147144,   0.496952,   0.484010,  -0.505245,  -0.513241, 
24186,   0.116312,   9.798042,  -0.051071,  -1.153861, -38.543160,  -0.556856,  -0.883310,  -1.059735,  -0.212946, -628.500000, -781.500000, -190.500000,  -0.315471,  88.836272, -92.183424,   0.496702,   0.483938,  -0.505576,  -0.513222, 
24187,   0.088009,   9.775437,   0.090341,  -0.976438, -37.974408,  -0.588311,  -0.884182,  -1.066614,  -0.199911, -628.500000, -783.000000, -186.000000,  -0.318616,  88.846264, -92.230680,   0.496462,   0.483759,  -0.505833,  -0.513370, 
24188,   0.056101,   9.929321,   0.031192,  -0.439029, -37.450232,  -0.477346,  -0.892159,  -1.059097,  -0.197784, -633.000000, -780.000000, -186.000000,  -0.322597,  88.855856, -92.283552,   0.496202,   0.483549,  -0.506117,  -0.513539, 
24189,   0.143111,   9.847981,   0.046539,  -0.829485, -36.968376,  -0.359948,  -0.906803,  -1.059363,  -0.181974, -640.500000, -778.500000, -181.500000,  -0.346207,  88.881600, -92.336832,   0.495958,   0.483318,  -0.506558,  -0.513556, 
24190,   0.123129,   9.841155,  -0.051581,  -0.905809, -36.897828,  -0.516188,  -0.895691,  -1.054387,  -0.150352, -634.500000, -775.500000, -171.000000,  -0.362388,  88.917440, -92.416256,   0.495522,   0.483049,  -0.507123,  -0.513672, 
24191,   0.198327,   9.681260,  -0.031654,  -0.733688, -36.853552,  -0.478694,  -0.896563,  -1.061267,  -0.137317, -634.500000, -777.000000, -166.500000,  -0.383408,  88.940696, -92.531048,   0.495003,   0.482547,  -0.507803,  -0.513977, 
24192,   0.147215,   9.782222,   0.126787,  -0.384482, -37.138856,  -0.445104,  -0.906161,  -1.075113,  -0.142615, -639.000000, -781.500000, -168.000000,  -0.392454,  88.945208, -92.657408,   0.494459,   0.481968,  -0.508396,  -0.514467, 
24193,   0.160258,   9.932977,   0.063250,  -0.567616, -37.432284,  -0.504552,  -0.896954,  -1.071315,  -0.157199, -634.500000, -781.500000, -172.500000,  -0.405396,  88.966952, -92.762696,   0.493954,   0.481538,  -0.508993,  -0.514771, 
24194,   0.136545,   9.825025,   0.013426,  -1.060755, -37.786508,  -0.411843,  -0.892810,  -1.056743,  -0.160329, -633.000000, -777.000000, -174.000000,  -0.418966,  88.996720, -92.850704,   0.493493,   0.481213,  -0.509555,  -0.514961, 
24195,   0.062612,   9.730042,   0.088351,  -0.692932, -37.938792,  -0.454011,  -0.890612,  -1.062355,  -0.152155, -631.500000, -778.500000, -171.000000,  -0.419199,  89.000264, -92.952776,   0.493018,   0.480771,  -0.509997,  -0.515381, 
24196,   0.101225,   9.788624,  -0.038206,  -0.521821, -38.010572,  -0.496916,  -0.896408,  -1.063258,  -0.151507, -634.500000, -778.500000, -171.000000,  -0.424219,  89.018936, -93.054288,   0.492503,   0.480374,  -0.510526,  -0.515711, 
24197,   0.156936,   9.800519,   0.118020,  -0.839716, -38.027648,  -0.500722,  -0.902734,  -1.069411,  -0.146899, -637.500000, -780.000000, -169.500000,  -0.434827,  89.031200, -93.159976,   0.492021,   0.479906,  -0.511068,  -0.516064, 
24198,   0.082785,   9.889924,   0.186577,  -0.710690, -38.001116,  -0.472720,  -0.900332,  -1.068597,  -0.123958, -636.000000, -778.500000, -162.000000,  -0.436663,  89.034496, -93.286200,   0.491445,   0.479347,  -0.511617,  -0.516581, 
24199,   0.170342,   9.711857,   0.099764,  -0.685599, -38.054108,  -0.386356,  -0.900878,  -1.076654,  -0.129651, -636.000000, -781.500000, -163.500000,  -0.443275,  89.045480, -93.420264,   0.490823,   0.478764,  -0.512254,  -0.517078, 
24200,  -0.081072,   9.853922,   0.201266,  -0.686099, -38.125900,  -0.509478,  -0.896329,  -1.089872,  -0.127493, -633.000000, -786.000000, -162.000000,  -0.438741,  89.039840, -93.555672,   0.490215,   0.478155,  -0.512775,  -0.517701, 
24201,  -0.008990,   9.704012,   0.260127,  -0.515625, -38.223216,  -0.326567,  -0.896467,  -1.085073,  -0.103651, -633.000000, -783.000000, -154.500000,  -0.433581,  89.023488, -93.713288,   0.489548,   0.477404,  -0.513337,  -0.518471, 
24202,  -0.079119,   9.837804,   0.283893,  -0.471084, -38.072424,  -0.393021,  -0.904615,  -1.078371,  -0.096987, -637.500000, -780.000000, -153.000000,  -0.421162,  89.003960, -93.890896,   0.488772,   0.476583,  -0.513938,  -0.519371, 
24203,   0.014998,   9.818569,   0.254483,  -0.571249, -37.769416,  -0.327820,  -0.906062,  -1.058274,  -0.084700, -639.000000, -772.500000, -150.000000,  -0.416252,  88.990176, -94.073280,   0.487984,   0.475732,  -0.514616,  -0.520235, 
24204,   0.099593,   9.810264,   0.086320,  -0.713084, -37.378540,  -0.496497,  -0.899549,  -1.048500,  -0.084193, -636.000000, -769.500000, -150.000000,  -0.420943,  88.998496, -94.248368,   0.487177,   0.474961,  -0.515402,  -0.520925, 
24205,   0.139793,   9.774154,   0.032890,  -1.235553, -37.271492,  -0.674410,  -0.901342,  -1.070678,  -0.087081, -636.000000, -777.000000, -150.000000,  -0.433580,  89.012256, -94.411872,   0.486429,   0.474222,  -0.516191,  -0.521501, 
24206,  -0.122311,   9.823301,   0.550315,  -1.297432, -37.458400,  -0.721927,  -0.899503,  -1.080726,  -0.079485, -634.500000, -780.000000, -147.000000,  -0.427007,  88.971400, -94.596456,   0.485726,   0.473245,  -0.516738,  -0.522493, 
24207,   0.105589,   9.795835,   0.205569,  -0.019327, -37.530408,  -0.308791,  -0.896776,  -1.081089,  -0.075271, -633.000000, -780.000000, -145.500000,  -0.422407,  88.939304, -94.787328,   0.484965,   0.472267,  -0.517358,  -0.523464, 
24208,   0.249255,   9.710370,   0.020548,  -0.696362, -37.798284,  -0.425444,  -0.900203,  -1.086790,  -0.070987, -634.500000, -781.500000, -144.000000,  -0.448943,  88.970656, -94.959400,   0.484168,   0.471499,  -0.518321,  -0.523939, 
24209,   0.202691,   9.787529,   0.329041,  -0.969837, -38.169968,  -0.556901,  -0.899674,  -1.081541,  -0.074947, -634.500000, -780.000000, -145.500000,  -0.461320,  88.958200, -95.145336,   0.483425,   0.470549,  -0.519081,  -0.524730, 
24210,   0.128893,   9.798996,   0.361745,  -0.543955, -38.605436,  -0.476785,  -0.900700,  -1.086427,  -0.047722, -634.500000, -780.000000, -136.500000,  -0.464984,  88.931800, -95.354520,   0.482593,   0.469475,  -0.519836,  -0.525719, 
24211,   0.256725,   9.768739,   0.147660,  -0.506314, -39.042328,  -0.462859,  -0.899219,  -1.100912,  -0.040704, -633.000000, -784.500000, -133.500000,  -0.480669,  88.935984, -95.578368,   0.481623,   0.468408,  -0.520841,  -0.526582, 
24212,   0.085788,   9.860964,   0.181531,  -0.851444, -39.609324,  -0.552160,  -0.894733,  -1.084710,  -0.052908, -631.500000, -780.000000, -138.000000,  -0.496165,  88.938384, -95.798576,   0.480668,   0.467342,  -0.521813,  -0.527429, 
24213,   0.046485,   9.757336,   0.382151,  -0.995893, -39.912724,  -0.414093,  -0.895075,  -1.086339,  -0.043833, -631.500000, -780.000000, -135.000000,  -0.496708,  88.917056, -96.024400,   0.479714,   0.466218,  -0.522633,  -0.528466, 
24214,   0.063374,   9.765944,   0.200184,  -0.483649, -40.218400,  -0.427418,  -0.899015,  -1.094484,  -0.025936, -633.000000, -781.500000, -129.000000,  -0.494679,  88.899912, -96.267344,   0.478651,   0.465045,  -0.523532,  -0.529567, 
24215,   0.116916,   9.832912,   0.262924,  -0.623471, -40.474384,  -0.489592,  -0.892673,  -1.085524,  -0.020892, -630.000000, -778.500000, -127.500000,  -0.496772,  88.889536, -96.522328,   0.477524,   0.463827,  -0.524527,  -0.530671, 
24216,   0.051083,   9.866384,   0.449342,  -0.819811, -41.024260,  -0.445439,  -0.898828,  -1.090863,  -0.020821, -633.000000, -780.000000, -127.500000,  -0.500535,  88.861296, -96.786704,   0.476433,   0.462484,  -0.525483,  -0.531890, 
24217,   0.051040,   9.806998,   0.358612,  -0.618947, -41.746236,  -0.442515,  -0.899716,  -1.100548,  -0.017439, -633.000000, -783.000000, -126.000000,  -0.502571,  88.831360, -97.055256,   0.475320,   0.461122,  -0.526441,  -0.533139, 
24218,   0.160473,   9.766438,   0.289040,  -0.493471, -42.756588,  -0.426206,  -0.897005,  -1.103718,  -0.022878, -631.500000, -784.500000, -127.500000,  -0.523397,  88.808304, -97.324088,   0.474251,   0.459688,  -0.527493,  -0.534269, 
24219,   0.200651,   9.768231,   0.224553,  -0.520598, -43.961536,  -0.454682,  -0.892423,  -1.111323,  -0.001416, -628.500000, -786.000000, -120.000000,  -0.543547,  88.797056, -97.606240,   0.473068,   0.458243,  -0.528650,  -0.535402, 
24220,   0.204938,   9.825816,   0.180297,  -0.916476, -45.429276,  -0.625333,  -0.886439,  -1.106799,   0.003050, -625.500000, -784.500000, -118.500000,  -0.567977,  88.795920, -97.910864,   0.471760,   0.456717,  -0.529961,  -0.536565, 
24221,   0.067389,   9.869251,   0.530515,  -1.675762, -47.073980,  -0.775091,  -0.891518,  -1.098831,   0.004853, -628.500000, -781.500000, -118.500000,  -0.581887,  88.773864, -98.235024,   0.470396,   0.455063,  -0.531208,  -0.537949, 
