Standard output of YIS Manager:
  TID,     AccX,     AccY,     AccZ,    AngVX,    AngVY,    AngVZ,     MagX,     MagY,     MagZ, NormMagX, NormMagY, NormMagZ,    Pitch,     Roll,      Yaw,       q0,       q1,       q2,       q3, 
25918,   0.140987,   9.716746,  -0.064188,   0.413402,  20.525926,   0.174324,   0.193128,  -0.964374,  -0.278682, -67.500000, -802.500000, -169.500000,  -0.870608,  89.801840,  37.563116,   0.668837,   0.669981,   0.222155,   0.233115, 
25919,   0.091456,   9.983758,   0.233329,  -0.105630,  20.702492,   0.063440,   0.192069,  -0.974874,  -0.270762, -67.500000, -805.500000, -166.500000,  -0.869231,  89.792272,  37.768988,   0.668480,   0.669527,   0.223348,   0.234328, 
25920,   0.108942,   9.689587,  -0.077560,   0.043895,  20.977310,   0.139594,   0.197181,  -0.977229,  -0.253260, -64.500000, -805.500000, -160.500000,  -0.867599,  89.800872,  37.992144,   0.667981,   0.669143,   0.224681,   0.235605, 
25921,   0.127115,   9.773576,   0.053451,   0.449974,  21.324302,   0.141529,   0.199566,  -0.979221,  -0.239971, -63.000000, -805.500000, -156.000000,  -0.866270,  89.790432,  38.236440,   0.667534,   0.668592,   0.226091,   0.237039, 
25922,   0.173756,   9.877638,   0.063116,  -0.109111,  21.712970,   0.127771,   0.199770,  -0.972794,  -0.225203, -63.000000, -802.500000, -151.500000,  -0.865649,  89.797360,  38.492108,   0.666960,   0.668121,   0.227599,   0.238509, 
25923,   0.158902,   9.814987,  -0.040119,   0.202571,  21.484864,   0.115548,   0.203539,  -0.965463,  -0.238563, -61.500000, -801.000000, -156.000000,  -0.874094,  89.800096,  38.742256,   0.666404,   0.667655,   0.229013,   0.240007, 
25924,   0.203115,   9.736552,  -0.117220,   0.420688,  21.269372,   0.210821,   0.195016,  -0.966003,  -0.242128, -66.000000, -801.000000, -157.500000,  -0.884378,  89.806632,  38.975372,   0.665857,   0.667248,   0.230325,   0.241410, 
25925,   0.270976,   9.944846,   0.111886,  -0.122656,  20.729574,   0.133358,   0.194300,  -0.974874,  -0.243283, -66.000000, -804.000000, -157.500000,  -0.898056,  89.804696,  39.203312,   0.665363,   0.666810,   0.231570,   0.242819, 
25926,   0.238540,   9.773211,  -0.134767,   0.050876,  20.139130,   0.140251,   0.201747,  -0.987641,  -0.241450, -61.500000, -808.500000, -156.000000,  -0.912381,  89.818312,  39.431140,   0.664773,   0.666461,   0.232842,   0.244198, 
25927,   0.241457,   9.780391,  -0.047199,   0.243585,  19.545304,   0.072837,   0.203010,  -0.970713,  -0.234603, -61.500000, -802.500000, -154.500000,  -0.925562,  89.823352,  39.660508,   0.664220,   0.666044,   0.234107,   0.245591, 
25928,   0.212431,   9.834113,  -0.061477,   0.050808,  19.356206,   0.118604,   0.207154,  -0.956140,  -0.237732, -60.000000, -798.000000, -156.000000,  -0.934258,  89.832160,  39.883604,   0.663667,   0.665653,   0.235371,   0.246915, 
25929,   0.223510,   9.800526,  -0.030794,  -0.155857,  19.101554,   0.095364,   0.205753,  -0.968269,  -0.220736, -60.000000, -801.000000, -150.000000,  -0.945902,  89.839872,  40.118504,   0.663089,   0.665237,   0.236683,   0.248326, 
25930,   0.166890,   9.726741,  -0.128513,   0.228167,  18.762672,   0.102277,   0.206112,  -0.963834,  -0.220159, -60.000000, -799.500000, -150.000000,  -0.949121,  89.850584,  40.345648,   0.662529,   0.664837,   0.238007,   0.249637, 
25931,   0.181366,   9.909361,   0.004965,   0.129877,  18.469266,   0.087279,   0.211174,  -0.974609,  -0.231615, -57.000000, -804.000000, -153.000000,  -0.957426,  89.852488,  40.567064,   0.662020,   0.664409,   0.239248,   0.250962, 
25932,   0.176388,   9.813783,  -0.065956,   0.032995,  18.229458,   0.116762,   0.207764,  -0.977503,  -0.217678, -58.500000, -804.000000, -148.500000,  -0.957869,  89.866968,  40.787488,   0.661458,   0.664039,   0.240558,   0.252210, 
25933,   0.149568,   9.761810,  -0.024290,   0.074294,  18.060246,   0.096805,   0.206642,  -0.958584,  -0.224119, -60.000000, -798.000000, -151.500000,  -0.961733,  89.873528,  40.999632,   0.660937,   0.663632,   0.241777,   0.253440, 
25934,   0.197124,   9.816545,  -0.007964,   0.196442,  18.264852,   0.154004,   0.206266,  -0.965826,  -0.234349, -60.000000, -801.000000, -154.500000,  -0.964841,  89.874584,  41.200916,   0.660474,   0.663215,   0.242925,   0.254615, 
25935,   0.159569,   9.901690,   0.046699,   0.050329,  18.238094,   0.073592,   0.207764,  -0.977503,  -0.217678, -58.500000, -804.000000, -148.500000,  -0.965375,  89.874584,  41.419516,   0.659985,   0.662750,   0.244186,   0.255877, 
25936,   0.168842,   9.731113,  -0.082594,   0.087700,  18.540358,   0.053265,   0.204319,  -0.986011,  -0.223047, -60.000000, -807.000000, -150.000000,  -0.965016,  89.886488,  41.625500,   0.659456,   0.662378,   0.245406,   0.257035, 
25937,   0.224927,   9.793282,   0.047702,   0.133048,  18.798648,   0.136680,   0.195112,  -0.989809,  -0.208462, -64.500000, -807.000000, -145.500000,  -0.969648,  89.878928,  41.843844,   0.659001,   0.661878,   0.246625,   0.258335, 
25938,   0.184643,   9.819587,  -0.028120,   0.085747,  19.216580,   0.082664,   0.198556,  -0.981302,  -0.203094, -63.000000, -804.000000, -144.000000,  -0.972944,  89.884168,  42.068324,   0.658461,   0.661437,   0.247916,   0.259635, 
25939,   0.176296,   9.786954,   0.060319,   0.166931,  19.616868,   0.116779,   0.196155,  -0.982116,  -0.226035, -64.500000, -805.500000, -151.500000,  -0.977009,  89.880352,  42.272856,   0.658011,   0.660981,   0.249064,   0.260842, 
25940,   0.242066,   9.796314,  -0.030659,   0.212891,  19.928272,   0.148926,   0.201405,  -0.989269,  -0.232375, -61.500000, -808.500000, -153.000000,  -0.985368,  89.879984,  42.478712,   0.657519,   0.660544,   0.250200,   0.262071, 
25941,   0.192416,   9.847262,   0.008546,   0.232765,  20.185740,   0.057987,   0.195829,  -0.980939,  -0.207307, -64.500000, -804.000000, -145.500000,  -0.992905,  89.878152,  42.705344,   0.656989,   0.660050,   0.251457,   0.263416, 
25942,   0.205840,   9.858259,   0.103670,   0.055157,  20.471088,   0.113318,   0.192076,  -0.985463,  -0.184296, -66.000000, -804.000000, -138.000000,  -1.001170,  89.872696,  42.952620,   0.656431,   0.659492,   0.252820,   0.264892, 
25943,   0.206895,   9.740265,  -0.002632,  -0.070669,  20.764688,   0.064931,   0.193883,  -1.001124,  -0.196004, -64.500000, -810.000000, -141.000000,  -1.003784,  89.879856,  43.186716,   0.655844,   0.659024,   0.254169,   0.266233, 
25944,   0.093185,   9.780886,   0.009531,   0.438685,  21.057658,   0.180182,   0.192060,  -0.988269,  -0.193948, -66.000000, -805.500000, -141.000000,  -1.002052,  89.868032,  43.426448,   0.655362,   0.658424,   0.255531,   0.267623, 
25945,   0.063185,   9.878874,   0.133309,  -0.164405,  21.717038,   0.124333,   0.189708,  -0.980664,  -0.187932, -67.500000, -802.500000, -139.500000,  -0.997030,  89.869776,  43.667612,   0.654802,   0.657886,   0.256951,   0.268970, 
25946,   0.144552,   9.793831,  -0.072699,   0.370780,  22.000566,   0.143969,   0.191343,  -0.997140,  -0.195103, -66.000000, -808.500000, -141.000000,  -0.997145,  89.870008,  43.908544,   0.654227,   0.657340,   0.258331,   0.270344, 
25947,   0.066622,   9.855797,   0.142171,  -0.011283,  22.437172,   0.112705,   0.189178,  -0.985914,  -0.183972, -67.500000, -804.000000, -138.000000,  -0.987695,  89.865240,  44.158888,   0.653681,   0.656721,   0.259808,   0.271728, 
25948,   0.147347,   9.761305,  -0.065028,   0.339242,  23.166336,   0.216551,   0.198060,  -0.980939,  -0.179829, -63.000000, -802.500000, -136.500000,  -0.984167,  89.863304,  44.427772,   0.653061,   0.656091,   0.261363,   0.273245, 
25949,   0.079466,   9.870930,   0.237884,  -0.064360,  24.029976,   0.183934,   0.206054,  -0.985649,  -0.172303, -58.500000, -804.000000, -133.500000,  -0.977963,  89.848560,  44.721600,   0.652461,   0.655324,   0.263047,   0.274919, 
25950,   0.046572,   9.732189,  -0.078193,   0.365198,  24.918568,   0.187048,   0.203530,  -0.978858,  -0.161749, -60.000000, -801.000000, -130.500000,  -0.968353,  89.850600,  45.024744,   0.651749,   0.654622,   0.264842,   0.276588, 
25951,   0.089403,   9.868425,   0.292252,   0.314629,  25.888438,   0.212425,   0.206803,  -0.971164,  -0.151843, -58.500000, -798.000000, -127.500000,  -0.965435,  89.821944,  45.359712,   0.651099,   0.653666,   0.266698,   0.278538, 
25952,   0.117669,   9.777213,   0.025056,  -0.113317,  26.894428,   0.173366,   0.206599,  -0.977592,  -0.166611, -58.500000, -801.000000, -132.000000,  -0.958117,  89.828152,  45.685204,   0.650285,   0.652921,   0.268609,   0.280329, 
25953,   0.080181,   9.751278,   0.070201,   0.459358,  27.498190,   0.207808,   0.197734,  -0.979761,  -0.161101, -63.000000, -801.000000, -130.500000,  -0.956899,  89.810816,  46.014088,   0.649582,   0.652048,   0.270447,   0.282229, 
25954,   0.175540,   9.867671,   0.191385,   0.010087,  28.077024,   0.126113,   0.196162,  -0.992705,  -0.139569, -63.000000, -804.000000, -123.000000,  -0.961648,  89.794224,  46.357092,   0.648824,   0.651161,   0.272333,   0.284242, 
25955,   0.148339,   9.804847,   0.033565,   0.127532,  28.663836,   0.120427,   0.207225,  -0.996148,  -0.136905, -57.000000, -805.500000, -121.500000,  -0.960166,  89.788952,  46.717200,   0.647955,   0.650262,   0.274370,   0.286280, 
25956,   0.207348,   9.854001,   0.165055,   0.267237,  28.922232,   0.265804,   0.202317,  -0.987366,  -0.139639, -60.000000, -802.500000, -123.000000,  -0.970427,  89.771144,  47.089500,   0.647092,   0.649287,   0.276376,   0.288483, 
25957,   0.174530,   9.690020,   0.075584,   0.151416,  29.367266,   0.263731,   0.201195,  -0.968446,  -0.146080, -61.500000, -796.500000, -126.000000,  -0.969455,  89.768184,  47.446512,   0.646212,   0.648406,   0.278397,   0.290501, 
25958,   0.168679,   9.790932,   0.162363,   0.256049,  29.508798,   0.154260,   0.194340,  -0.979849,  -0.137512, -64.500000, -799.500000, -123.000000,  -0.971676,  89.755800,  47.805792,   0.645371,   0.647475,   0.280388,   0.292572, 
25959,   0.107702,   9.794343,   0.086173,   0.077196,  29.754302,   0.148916,   0.187314,  -0.992067,  -0.124407, -67.500000, -802.500000, -118.500000,  -0.965306,  89.754784,  48.164596,   0.644465,   0.646563,   0.282444,   0.294554, 
25960,   0.145142,   9.766447,   0.034105,   0.467062,  30.015638,   0.209105,   0.188202,  -0.982381,  -0.127789, -67.500000, -799.500000, -120.000000,  -0.962777,  89.746456,  48.528812,   0.643576,   0.645606,   0.284489,   0.296606, 
25961,   0.113791,   9.861504,   0.113019,   0.049782,  30.078828,   0.200795,   0.192922,  -0.994785,  -0.130170, -64.500000, -804.000000, -120.000000,  -0.961409,  89.743328,  48.890508,   0.642661,   0.644687,   0.286526,   0.298638, 
25962,   0.245562,   9.827507,   0.028994,   0.243961,  30.033978,   0.215676,   0.193719,  -1.012527,  -0.105001, -63.000000, -808.500000, -111.000000,  -0.974414,  89.744368,  49.268872,   0.641639,   0.643784,   0.288586,   0.300831, 
25963,   0.324090,   9.706508,  -0.042371,   0.229416,  29.730872,   0.273952,   0.193752,  -1.006914,  -0.085696, -63.000000, -805.500000, -105.000000,  -0.985639,  89.751088,  49.666532,   0.640515,   0.642836,   0.290769,   0.303097, 
25964,   0.194470,   9.778708,   0.006154,   0.467207,  29.170838,   0.263720,   0.194794,  -0.999221,  -0.103268, -63.000000, -804.000000, -111.000000,  -0.993532,  89.748600,  50.061132,   0.639460,   0.641836,   0.292929,   0.305351, 
25965,   0.216679,   9.903799,   0.024109,   0.046388,  28.947650,   0.111037,   0.183919,  -0.992156,  -0.100818, -69.000000, -801.000000, -111.000000,  -1.004567,  89.760176,  50.432840,   0.638378,   0.640982,   0.294982,   0.307458, 
25966,   0.258387,   9.768593,  -0.095474,   0.177535,  28.512572,   0.135696,   0.174883,  -0.995139,  -0.090771, -73.500000, -801.000000, -108.000000,  -1.017915,  89.767728,  50.798056,   0.637317,   0.640116,   0.296969,   0.309546, 
25967,   0.315377,   9.826191,   0.020595,   0.232393,  27.706352,   0.222543,   0.185758,  -1.002204,  -0.093222, -67.500000, -804.000000, -108.000000,  -1.032366,  89.767880,  51.163148,   0.636282,   0.639200,   0.298923,   0.311651, 
25968,   0.276648,   9.871238,  -0.038613,   0.112179,  27.116200,   0.153682,   0.184528,  -1.013518,  -0.080764, -67.500000, -807.000000, -103.500000,  -1.046040,  89.780736,  51.526356,   0.635183,   0.638357,   0.300907,   0.313709, 
25969,   0.259523,   9.808630,  -0.018652,  -0.051041,  26.821062,   0.157277,   0.182347,  -1.005099,  -0.079285, -69.000000, -804.000000, -103.500000,  -1.052099,  89.787552,  51.889860,   0.634137,   0.637460,   0.302919,   0.315741, 
25970,   0.200465,   9.725284,  -0.194493,   0.372475,  26.519644,   0.163356,   0.189031,  -0.994511,  -0.083315, -66.000000, -801.000000, -105.000000,  -1.055806,  89.798536,  52.246264,   0.633079,   0.636584,   0.304909,   0.317702, 
25971,   0.273220,   9.946055,   0.057084,  -0.049824,  26.164546,   0.114682,   0.182706,  -1.000664,  -0.078708, -69.000000, -802.500000, -103.500000,  -1.061521,  89.802352,  52.600440,   0.632052,   0.635670,   0.306851,   0.319676, 
25972,   0.170083,   9.719842,  -0.379445,   0.224725,  25.470244,   0.151787,   0.179279,  -1.006365,  -0.074424, -70.500000, -804.000000, -102.000000,  -1.056650,  89.847528,  52.931680,   0.630890,   0.635017,   0.308842,   0.321354, 
25973,   0.243268,   9.831865,  -0.050232,   0.232966,  24.669816,   0.191809,   0.184032,  -1.013155,  -0.057499, -67.500000, -805.500000, -96.000000,  -1.063841,  89.856432,  53.281272,   0.629844,   0.634147,   0.310767,   0.323296, 
25974,   0.270762,   9.802907,  -0.143752,  -0.064551,  24.003066,   0.139939,   0.184032,  -1.013155,  -0.057499, -67.500000, -805.500000, -96.000000,  -1.065908,  89.890728,  53.623452,   0.628681,   0.633410,   0.312745,   0.325093, 
25975,   0.180991,   9.797547,  -0.102130,   0.308927,  23.088218,   0.195489,   0.185433,  -1.001027,  -0.074494, -67.500000, -802.500000, -102.000000,  -1.070846,  89.894072,  53.956916,   0.627694,   0.632524,   0.314566,   0.326936, 
25976,   0.265925,   9.812679,   0.014381,   0.133352,  22.303494,   0.129329,   0.179295,  -1.003559,  -0.064771, -70.500000, -802.500000, -99.000000,  -1.088612,  89.895632,  54.278220,   0.626715,   0.631697,   0.316245,   0.328788, 
25977,   0.221247,   9.807247,  -0.038348,   0.073507,  21.657290,   0.144265,   0.179670,  -0.996316,  -0.054541, -70.500000, -799.500000, -96.000000,  -1.095555,  89.898728,  54.597016,   0.625766,   0.630856,   0.317974,   0.330561, 
25978,   0.252755,   9.823351,   0.023733,   0.087419,  21.129310,   0.116665,   0.185108,  -0.999849,  -0.055767, -67.500000, -801.000000, -96.000000,  -1.108118,  89.897312,  54.919032,   0.624811,   0.629992,   0.319675,   0.332393, 
25979,   0.207970,   9.793165,  -0.064161,   0.064650,  20.755720,   0.112678,   0.178611,  -1.006817,  -0.046621, -70.500000, -802.500000, -93.000000,  -1.108283,  89.902536,  55.233736,   0.623859,   0.629134,   0.321414,   0.334091, 
25980,   0.132057,   9.855244,  -0.020816,   0.253827,  20.586206,   0.100146,   0.179686,  -0.993510,  -0.044889, -70.500000, -798.000000, -93.000000,  -1.109822,  89.903384,  55.551020,   0.622920,   0.628248,   0.323148,   0.335822, 
25981,   0.192296,   9.788189,   0.103062,  -0.085643,  21.001366,   0.146330,   0.185808,  -0.993785,  -0.064264, -67.500000, -799.500000, -99.000000,  -1.106205,  89.901080,  55.859780,   0.622039,   0.627354,   0.324854,   0.337487, 
25982,   0.150520,   9.756986,   0.026467,   0.183236,  21.271568,   0.146357,   0.180776,  -1.018042,  -0.057753, -69.000000, -807.000000, -96.000000,  -1.102026,  89.893592,  56.165364,   0.621196,   0.626440,   0.326530,   0.339147, 
25983,   0.153900,   9.816332,   0.024106,   0.210951,  21.656824,   0.114827,   0.171585,  -1.019034,  -0.033516, -73.500000, -805.500000, -88.500000,  -1.101442,  89.891496,  56.485348,   0.620256,   0.625508,   0.328273,   0.340880, 
25984,   0.173732,   9.778639,   0.088622,   0.144553,  21.707714,   0.179788,   0.175012,  -1.013332,  -0.037800, -72.000000, -804.000000, -90.000000,  -1.103565,  89.878176,  56.820060,   0.619319,   0.624476,   0.330044,   0.342738, 
25985,   0.174378,   9.813701,  -0.017578,   0.126501,  21.609626,   0.125629,   0.183193,  -1.014422,  -0.025159, -67.500000, -804.000000, -85.500000,  -1.105781,  89.881552,  57.157620,   0.618282,   0.623527,   0.331880,   0.344563, 
25986,   0.273333,   9.854605,   0.014465,   0.114570,  21.280796,   0.180576,   0.183193,  -1.014422,  -0.025159, -67.500000, -804.000000, -85.500000,  -1.117089,  89.877440,  57.507288,   0.617222,   0.622528,   0.333711,   0.346525, 
25987,   0.223286,   9.795125,   0.014052,   0.153324,  20.844428,   0.103627,   0.175371,  -1.008897,  -0.037222, -72.000000, -802.500000, -90.000000,  -1.126957,  89.871872,  57.840672,   0.616211,   0.621553,   0.335450,   0.348388, 
25988,   0.231928,   9.820887,   0.123904,  -0.001386,  20.836056,   0.136585,   0.175233,  -1.004099,  -0.013380, -72.000000, -799.500000, -82.500000,  -1.135711,  89.862512,  58.175540,   0.615209,   0.620540,   0.337185,   0.350258, 
25989,   0.151271,   9.825446,   0.072552,   0.095816,  21.111544,   0.125145,   0.182697,  -1.014058,  -0.001894, -67.500000, -802.500000, -78.000000,  -1.135159,  89.851016,  58.534796,   0.614171,   0.619416,   0.339097,   0.352216, 
25990,   0.124052,   9.840190,   0.147310,   0.111926,  21.867480,   0.095238,   0.186124,  -1.008357,  -0.006178, -66.000000, -801.000000, -79.500000,  -1.134479,  89.830040,  58.910180,   0.613135,   0.618193,   0.341066,   0.354288, 
25991,   0.097309,   9.807119,   0.193711,   0.180363,  22.712486,   0.111005,   0.179394,  -0.986719,  -0.006856, -70.500000, -793.500000, -81.000000,  -1.127589,  89.809088,  59.286528,   0.612100,   0.616935,   0.343065,   0.356325, 
25992,   0.161197,   9.804320,  -0.029486,   0.138032,  23.655916,   0.188221,   0.173443,  -0.985631,   0.007981, -73.500000, -792.000000, -76.500000,  -1.119513,  89.812080,  59.665444,   0.610922,   0.615784,   0.345153,   0.358292, 
25993,   0.094819,   9.768174,   0.168879,   0.360525,  24.456316,   0.248407,   0.176763,  -1.010163,   0.022596, -70.500000, -799.500000, -70.500000,  -1.109024,  89.792856,  60.076816,   0.609770,   0.614408,   0.347359,   0.360486, 
25994,   0.004960,   9.761477,   0.152861,   0.149125,  25.657724,   0.250018,   0.175517,  -1.024284,   0.025400, -70.500000, -804.000000, -69.000000,  -1.092584,  89.779912,  60.506284,   0.608543,   0.612990,   0.349710,   0.362726, 
25995,   0.041815,   9.886458,   0.232302,   0.103592,  27.116220,   0.153587,   0.170250,  -1.019937,   0.022089, -73.500000, -802.500000, -70.500000,  -1.082262,  89.757536,  60.949264,   0.607278,   0.611473,   0.352056,   0.365084, 
25996,   0.018112,   9.770253,   0.170670,   0.178268,  28.601976,   0.224322,   0.170763,  -1.017494,   0.008476, -73.500000, -802.500000, -75.000000,  -1.067499,  89.739232,  61.390440,   0.606012,   0.609970,   0.354427,   0.367398, 
25997,   0.011885,   9.752490,   0.203070,   0.392221,  30.274114,   0.273793,   0.170934,  -1.016679,   0.003938, -73.500000, -802.500000, -76.500000,  -1.049374,  89.715104,  61.836356,   0.604773,   0.608410,   0.356822,   0.369738, 
25998,   0.008998,   9.838048,   0.279238,   0.230227,  32.124630,   0.243965,   0.167710,  -1.015953,   0.022990, -75.000000, -801.000000, -70.500000,  -1.036819,  89.689000,  62.308752,   0.603413,   0.606748,   0.359303,   0.372239, 
25999,   0.056725,   9.827403,   0.179259,   0.307209,  33.832440,   0.249047,   0.164829,  -1.013598,   0.032966, -76.500000, -799.500000, -67.500000,  -1.028131,  89.671952,  62.817952,   0.601870,   0.605028,   0.361986,   0.374924, 
26000,   0.030287,   9.719911,   0.204956,   0.343536,  35.771648,   0.257791,   0.164112,  -1.022469,   0.031811, -76.500000, -802.500000, -67.500000,  -1.018903,  89.647240,  63.343824,   0.600311,   0.603209,   0.364731,   0.377718, 
26001,   0.101493,   9.794127,   0.180750,   0.529682,  37.239320,   0.320729,   0.157615,  -1.029437,   0.040957, -79.500000, -804.000000, -64.500000,  -1.017176,  89.626152,  63.892676,   0.598602,   0.601329,   0.367549,   0.380641, 
26002,   0.229262,   9.855906,   0.363515,   0.165293,  38.601204,   0.323506,   0.163941,  -1.023284,   0.036349, -76.500000, -802.500000, -66.000000,  -1.026201,  89.591264,  64.459764,   0.596868,   0.599355,   0.370359,   0.383761, 
26003,   0.141932,   9.715660,   0.022834,   0.452466,  39.854868,   0.331537,   0.168678,  -1.032880,   0.043621, -73.500000, -805.500000, -63.000000,  -1.030437,  89.585968,  65.039644,   0.594930,   0.597458,   0.373345,   0.386814, 
26004,   0.269209,   9.841762,   0.256983,   0.463511,  40.975792,   0.351574,   0.160017,  -1.028622,   0.063898, -78.000000, -802.500000, -57.000000,  -1.044628,  89.552848,  65.663772,   0.592937,   0.595290,   0.376406,   0.390230, 
26005,   0.309124,   9.800479,   0.125646,   0.042865,  41.848232,   0.292816,   0.154596,  -1.022283,   0.074776, -81.000000, -799.500000, -54.000000,  -1.057206,  89.552128,  66.295084,   0.590743,   0.593250,   0.379614,   0.393560, 
26006,   0.279011,   9.764568,   0.117135,   0.584334,  42.772380,   0.341309,   0.159862,  -1.026630,   0.078088, -78.000000, -801.000000, -52.500000,  -1.074689,  89.524736,  66.952148,   0.588553,   0.590976,   0.382821,   0.397118, 
26007,   0.364702,   9.849128,   0.218749,   0.222718,  43.547180,   0.351091,   0.165471,  -1.029348,   0.072325, -75.000000, -802.500000, -54.000000,  -1.090637,  89.505320,  67.607960,   0.586322,   0.588738,   0.386051,   0.400631, 
26008,   0.279156,   9.794703,   0.119517,   0.245515,  44.107300,   0.300373,   0.161872,  -1.035864,   0.081146, -76.500000, -804.000000, -51.000000,  -1.104334,  89.493248,  68.275792,   0.583984,   0.586456,   0.389357,   0.404146, 
26009,   0.319870,   9.765628,   0.093834,   0.672651,  44.765032,   0.386388,   0.150126,  -1.035678,   0.096632, -82.500000, -802.500000, -46.500000,  -1.126361,  89.469120,  68.969128,   0.581582,   0.584052,   0.392705,   0.407872, 
26010,   0.322042,   9.885556,   0.423833,   0.079009,  45.513400,   0.340927,   0.146698,  -1.041380,   0.100916, -84.000000, -804.000000, -45.000000,  -1.140559,  89.443176,  69.671296,   0.579144,   0.581544,   0.396105,   0.411583, 
26011,   0.239742,   9.646921,  -0.086844,   0.528166,  45.788448,   0.402979,   0.147057,  -1.036944,   0.101494, -84.000000, -802.500000, -45.000000,  -1.152668,  89.446944,  70.366704,   0.576583,   0.579201,   0.399585,   0.415144, 
26012,   0.268056,   9.870518,   0.295683,   0.503793,  45.932928,   0.425584,   0.144346,  -1.033775,   0.106933, -85.500000, -801.000000, -43.500000,  -1.161337,  89.418816,  71.079944,   0.574089,   0.576584,   0.403029,   0.418860, 
26013,   0.171459,   9.749220,   0.025437,   0.162897,  46.189512,   0.388675,   0.155238,  -1.038033,   0.114135, -79.500000, -802.500000, -40.500000,  -1.160120,  89.433680,  71.790264,   0.571420,   0.574153,   0.406663,   0.422358, 
26014,   0.216292,   9.838717,   0.279013,   0.475973,  46.193512,   0.344812,   0.152340,  -1.038484,   0.114458, -81.000000, -802.500000, -40.500000,  -1.170329,  89.402768,  72.518696,   0.568832,   0.571431,   0.410132,   0.426136, 
26015,   0.117867,   9.792036,  -0.002670,   0.114502,  46.509984,   0.411241,   0.140764,  -1.037484,   0.125407, -87.000000, -801.000000, -37.500000,  -1.165183,  89.417384,  73.236720,   0.566104,   0.568911,   0.413790,   0.429620, 
26016,   0.238944,   9.779289,   0.267076,   0.632972,  46.652376,   0.462998,   0.134985,  -1.035581,   0.135707, -90.000000, -799.500000, -34.500000,  -1.169885,  89.385336,  73.986928,   0.563414,   0.566042,   0.417356,   0.433451, 
26017,   0.151734,   9.851584,  -0.002377,   0.009445,  47.177452,   0.421943,   0.125916,  -1.044177,   0.126449, -94.500000, -802.500000, -37.500000,  -1.161357,  89.413736,  74.696168,   0.560618,   0.563561,   0.421006,   0.436788, 
26018,   0.349912,   9.815601,   0.272124,   0.649173,  47.505924,   0.385509,   0.121959,  -1.055128,   0.134693, -96.000000, -805.500000, -34.500000,  -1.176944,  89.375200,  75.447328,   0.557867,   0.560655,   0.424462,   0.440668, 
26019,   0.092122,   9.659562,   0.109179,   0.124382,  48.387200,   0.462108,   0.124873,  -1.051871,   0.144022, -94.500000, -804.000000, -31.500000,  -1.159835,  89.382720,  76.196112,   0.555008,   0.557844,   0.428232,   0.444196, 
26020,   0.264280,   9.930786,   0.377532,   0.733023,  49.039756,   0.390476,   0.136995,  -1.044814,   0.138766, -88.500000, -802.500000, -33.000000,  -1.169820,  89.329288,  76.974288,   0.552197,   0.554702,   0.431751,   0.448202, 
26021,   0.027162,   9.791978,  -0.091280,   0.092302,  49.490476,   0.490059,   0.127788,  -1.048613,   0.153350, -93.000000, -802.500000, -28.500000,  -1.149563,  89.354232,  77.740408,   0.549146,   0.551844,   0.435647,   0.451693, 
26022,   0.312525,   9.870220,   0.358965,   0.735895,  49.340528,   0.450003,   0.122008,  -1.046709,   0.163651, -96.000000, -801.000000, -25.500000,  -1.165162,  89.310320,  78.550672,   0.546091,   0.548605,   0.439291,   0.455809, 
26023,   0.098494,   9.758087,  -0.135034,   0.108072,  49.338936,   0.435323,   0.127617,  -1.049427,   0.157888, -93.000000, -802.500000, -27.000000,  -1.151121,  89.345816,  79.316024,   0.542916,   0.545767,   0.443151,   0.459239, 
26024,   0.354135,   9.810327,   0.274775,   0.588857,  49.135216,   0.437000,   0.115683,  -1.052862,   0.168259, -99.000000, -802.500000, -24.000000,  -1.163290,  89.314792,  80.118960,   0.539792,   0.542559,   0.446787,   0.463217, 
26025,   0.139375,   9.749721,  -0.174276,   0.371347,  49.035688,   0.398024,   0.112459,  -1.052136,   0.187311, -100.500000, -801.000000, -18.000000,  -1.157806,  89.347232,  80.918344,   0.536408,   0.539550,   0.450712,   0.466810, 
26026,   0.370465,   9.986515,   0.403017,   0.417661,  48.811608,   0.475780,   0.115032,  -1.050507,   0.205714, -99.000000, -799.500000, -12.000000,  -1.176249,  89.305024,  81.773288,   0.533038,   0.536056,   0.454469,   0.471056, 
26027,   0.059252,   9.796116,  -0.161268,   0.061525,  48.955996,   0.332274,   0.106338,  -1.051861,   0.206686, -103.500000, -799.500000, -12.000000,  -1.167868,  89.339896,  82.592888,   0.529524,   0.532916,   0.458473,   0.474676, 
26028,   0.367385,   9.701750,   0.162013,   0.612303,  49.206800,   0.531361,   0.102894,  -1.060370,   0.201318, -105.000000, -802.500000, -13.500000,  -1.176783,  89.315960,  83.081904,   0.527573,   0.530885,   0.460605,   0.477073, 
26029,   0.079655,   9.906054,   0.099221,   0.563533,  49.364336,   0.388574,   0.105792,  -1.059918,   0.200993, -103.500000, -802.500000, -13.500000,  -1.174584,  89.315816,  83.572880,   0.525527,   0.528890,   0.462880,   0.479314, 
26030,   0.347903,   9.866727,   0.182964,   0.050816,  49.531812,   0.438119,   0.105279,  -1.062361,   0.214606, -103.500000, -802.500000,  -9.000000,  -1.187948,  89.317064,  84.065848,   0.523402,   0.526958,   0.465097,   0.481628, 
26031,   0.139766,   9.673314,  -0.079899,   0.599561,  49.533236,   0.383269,   0.105124,  -1.060369,   0.228796, -103.500000, -801.000000,  -4.500000,  -1.189055,  89.325256,  84.559368,   0.521283,   0.524994,   0.467393,   0.483851, 
26032,   0.345107,   9.801394,   0.014505,   0.767129,  49.419768,   0.498171,   0.111467,  -1.051410,   0.233841, -100.500000, -798.000000,  -3.000000,  -1.202329,  89.320768,  85.052504,   0.519156,   0.523008,   0.469563,   0.486163, 
26033,   0.219551,   9.863226,   0.263120,   0.114013,  49.062908,   0.386970,   0.108210,  -1.056297,   0.233587, -102.000000, -799.500000,  -3.000000,  -1.202631,  89.306712,  85.543488,   0.517135,   0.520933,   0.471742,   0.488446, 
26034,   0.263178,   9.808060,  -0.002362,   0.410570,  48.842548,   0.337004,   0.093907,  -1.054933,   0.240322, -109.500000, -798.000000,  -1.500000,  -1.215657,  89.318712,  86.031664,   0.514940,   0.519027,   0.473949,   0.490653, 
26035,   0.247030,   9.740095,   0.001207,   0.486146,  48.492964,   0.433161,   0.087769,  -1.057465,   0.250045, -112.500000, -798.000000,   1.500000,  -1.215036,  89.323480,  86.515912,   0.512839,   0.517034,   0.476158,   0.492798, 
26036,   0.299932,   9.799822,   0.110167,   0.669101,  47.980392,   0.401895,   0.089967,  -1.063079,   0.258218, -111.000000, -799.500000,   4.500000,  -1.227335,  89.318912,  86.996760,   0.510740,   0.515069,   0.478252,   0.495025, 
26037,   0.244021,   9.859797,   0.145267,   0.271204,  47.594904,   0.414837,   0.092523,  -1.064256,   0.266969, -109.500000, -799.500000,   7.500000,  -1.228274,  89.320408,  87.472376,   0.508669,   0.513088,   0.480387,   0.497136, 
26038,   0.304059,   9.736113,   0.111400,   0.164462,  47.212384,   0.363350,   0.089266,  -1.069143,   0.266716, -111.000000, -801.000000,   7.500000,  -1.234313,  89.320880,  87.944536,   0.506585,   0.511129,   0.482468,   0.499249, 
26039,   0.208972,   9.743322,  -0.062811,   0.600778,  47.042232,   0.339025,   0.083454,  -1.072853,   0.257711, -114.000000, -802.500000,   4.500000,  -1.232050,  89.327016,  88.413488,   0.504525,   0.509173,   0.484598,   0.501288, 
26040,   0.139092,   9.894991,   0.198804,   0.468670,  46.704380,   0.314162,   0.085668,  -1.075659,   0.275538, -112.500000, -802.500000,  10.500000,  -1.235041,  89.325384,  88.880072,   0.502472,   0.507200,   0.486645,   0.503356, 
26041,   0.115057,   9.867601,   0.043983,   0.430907,  46.375824,   0.412343,   0.086573,  -1.063167,   0.281808, -112.500000, -798.000000,  12.000000,  -1.221777,  89.336256,  89.343512,   0.500439,   0.505214,   0.488796,   0.505276, 
26042,   0.208059,   9.830716,  -0.024987,   0.273185,  46.055908,   0.404922,   0.083691,  -1.060812,   0.291784, -114.000000, -796.500000,  15.000000,  -1.218481,  89.351176,  89.803008,   0.498362,   0.503305,   0.490903,   0.507206, 
26043,   0.120244,   9.624560,  -0.195750,   0.815614,  45.352532,   0.528945,   0.077178,  -1.070586,   0.291277, -117.000000, -799.500000,  15.000000,  -1.209889,  89.375376,  90.257584,   0.496277,   0.501420,   0.493040,   0.509037, 
26044,   0.232383,   9.961076,   0.048462,   0.843854,  44.729636,   0.500783,   0.062158,  -1.078093,   0.296857, -124.500000, -801.000000,  16.500000,  -1.218638,  89.382904,  90.706408,   0.494205,   0.499552,   0.494992,   0.510978, 
26045,   0.200186,   9.991348,   0.046472,  -0.073255,  44.001256,   0.294977,   0.061645,  -1.080537,   0.310470, -124.500000, -801.000000,  21.000000,  -1.226797,  89.413032,  91.147296,   0.492072,   0.497813,   0.497013,   0.512784, 
26046,   0.471775,   9.694378,  -0.054984,   0.185669,  43.280592,   0.389462,   0.065961,  -1.065150,   0.302803, -123.000000, -796.500000,  18.000000,  -1.249748,  89.430872,  91.581256,   0.489949,   0.496107,   0.498877,   0.514665, 
26047,   0.348229,   9.614902,  -0.264877,   0.812314,  42.389632,   0.397941,   0.053139,  -1.078271,   0.316557, -129.000000, -799.500000,  22.500000,  -1.260408,  89.453016,  92.006280,   0.487889,   0.494390,   0.500762,   0.516422, 
26048,   0.296533,   9.904304,   0.249557,   0.357608,  41.563380,   0.395658,   0.056070,  -1.072206,   0.335537, -127.500000, -796.500000,  28.500000,  -1.268749,  89.444864,  92.424112,   0.486002,   0.492565,   0.502490,   0.518270, 
26049,   0.184296,   9.905449,  -0.121310,  -0.050968,  41.029664,   0.216319,   0.064951,  -1.067231,   0.339680, -123.000000, -795.000000,  30.000000,  -1.271638,  89.481480,  92.834168,   0.483982,   0.490938,   0.504411,   0.519864, 
26050,   0.274195,   9.702332,  -0.088320,   0.318070,  40.166764,   0.379112,   0.056428,  -1.067771,   0.336115, -127.500000, -795.000000,  28.500000,  -1.276263,  89.499096,  93.238136,   0.482043,   0.489245,   0.506191,   0.521501, 
26051,   0.188588,   9.790237,  -0.142603,   0.664514,  39.596656,   0.381503,   0.039057,  -1.067673,   0.347711, -136.500000, -793.500000,  31.500000,  -1.280846,  89.518248,  93.634776,   0.480132,   0.487589,   0.507948,   0.523100, 
26052,   0.268333,   9.932880,  -0.120075,   0.374566,  38.920916,   0.314085,   0.029320,  -1.076721,   0.366256, -141.000000, -795.000000,  37.500000,  -1.288984,  89.550120,  94.023880,   0.478186,   0.486036,   0.509717,   0.524625, 
26053,   0.276983,   9.864047,   0.013318,  -0.124709,  37.934800,   0.343283,   0.034228,  -1.085503,   0.368990, -138.000000, -798.000000,  39.000000,  -1.296940,  89.575160,  94.405632,   0.476294,   0.484476,   0.511415,   0.526136, 
26054,   0.300176,   9.716386,  -0.393822,   0.441604,  37.007996,   0.272135,   0.034945,  -1.076633,   0.370145, -138.000000, -795.000000,  39.000000,  -1.313272,  89.619536,  94.776992,   0.474321,   0.483070,   0.513114,   0.527542, 
26055,   0.227556,   9.702564,  -0.112274,   0.559209,  35.896424,   0.401631,   0.031860,  -1.080705,   0.365355, -139.500000, -796.500000,  37.500000,  -1.313808,  89.638096,  95.139096,   0.472572,   0.481526,   0.514722,   0.528958, 
26056,   0.172143,  10.017713,  -0.087685,   0.438751,  34.988904,   0.314557,   0.034041,  -1.089125,   0.363875, -138.000000, -799.500000,  37.500000,  -1.322423,  89.657472,  95.491136,   0.470829,   0.480066,   0.516258,   0.530361, 
26057,   0.184262,   9.840909,  -0.052896,  -0.365627,  34.403540,   0.295296,   0.027732,  -1.092471,   0.378136, -141.000000, -799.500000,  42.000000,  -1.320220,  89.692528,  95.834800,   0.469099,   0.478648,   0.517867,   0.531602, 
26058,   0.210036,   9.656250,  -0.271780,   0.755634,  34.027240,   0.274853,   0.018679,  -1.098261,   0.378530, -145.500000, -801.000000,  42.000000,  -1.323824,  89.714432,  96.175416,   0.467406,   0.477209,   0.519370,   0.532905, 
26059,   0.182734,   9.871100,  -0.078854,   0.221269,  33.842016,   0.344002,   0.019209,  -1.093011,   0.374570, -145.500000, -799.500000,  40.500000,  -1.319403,  89.740128,  96.512024,   0.465753,   0.475766,   0.520908,   0.534142, 
26060,   0.247187,   9.782025,   0.014811,   0.396773,  33.343158,   0.284855,   0.027186,  -1.100527,   0.372443, -141.000000, -802.500000,  40.500000,  -1.322814,  89.740768,  96.845528,   0.464182,   0.474271,   0.522284,   0.535511, 
26061,   0.089347,   9.785101,  -0.341051,   0.136111,  33.041482,   0.320138,   0.035896,  -1.096367,   0.381124, -136.500000, -801.000000,  43.500000,  -1.312139,  89.789984,  97.174144,   0.462492,   0.472922,   0.523919,   0.536573, 
26062,   0.333557,   9.842440,   0.069791,   0.122015,  32.480996,   0.301322,   0.027390,  -1.094100,   0.387211, -141.000000, -799.500000,  45.000000,  -1.321492,  89.795648,  97.499752,   0.460894,   0.471493,   0.525243,   0.537892, 
26063,   0.073449,   9.684201,  -0.387861,   0.606376,  31.954794,   0.253795,   0.024321,  -1.095366,   0.392072, -142.500000, -799.500000,  46.500000,  -1.316614,  89.840192,  97.819320,   0.459233,   0.470182,   0.526786,   0.538951, 
26064,   0.252070,   9.912354,   0.148313,  -0.122891,  32.027828,   0.290573,   0.024508,  -1.091745,   0.397187, -142.500000, -798.000000,  48.000000,  -1.313834,  89.846640,  98.137296,   0.457725,   0.468734,   0.528133,   0.540186, 
26065,   0.045231,   9.759048,  -0.287824,   0.518668,  31.959862,   0.239380,   0.018166,  -1.100705,   0.392143, -145.500000, -801.000000,  46.500000,  -1.308486,  89.871448,  98.453872,   0.456161,   0.467353,   0.529572,   0.541319, 
26066,   0.066987,   9.789909,  -0.018985,   0.332952,  32.107048,   0.331814,   0.015268,  -1.101156,   0.392467, -147.000000, -801.000000,  46.500000,  -1.290144,  89.883504,  98.772104,   0.454687,   0.465838,   0.530992,   0.542448, 
26067,  -0.038318,   9.825235,  -0.107418,   0.511788,  32.030896,   0.209623,   0.015285,  -1.098349,   0.402119, -147.000000, -799.500000,  49.500000,  -1.274437,  89.892144,  99.090656,   0.453214,   0.464318,   0.532387,   0.543605, 
26068,   0.055528,   9.882754,  -0.029630,  -0.163752,  32.232358,   0.258945,   0.000282,  -1.103050,   0.417352, -154.500000, -799.500000,  54.000000,  -1.256905,  89.919080,  99.409904,   0.451674,   0.462859,   0.533880,   0.544673, 
26069,   0.102629,   9.788407,  -0.100622,   0.559938,  32.284278,   0.299751,  -0.005684,  -1.104768,   0.422537, -157.500000, -799.500000,  55.500000,  -1.251016,  89.918344,  99.729776,   0.450187,   0.461341,   0.535195,   0.545917, 
26070,   0.002821,   9.712909,  -0.100368,   0.236845,  32.800876,   0.282161,   0.005907,  -1.102962,   0.421241, -151.500000, -799.500000,  55.500000,  -1.233618,  89.940080, 100.052840,   0.448641,   0.459832,   0.536666,   0.547012, 
26071,   0.222782,   9.918625,   0.229280,   0.596770,  33.691612,   0.286480,  -0.001540,  -1.090196,   0.419408, -156.000000, -795.000000,  54.000000,  -1.236051,  89.901640, 100.383936,   0.447196,   0.458137,   0.537793,   0.548491, 
26072,   0.058975,   9.801386,   0.182208,   0.008989,  34.936132,   0.239262,  -0.013490,  -1.096437,   0.420127, -162.000000, -796.500000,  54.000000,  -1.227542,  89.887976, 100.724808,   0.445657,   0.456441,   0.539121,   0.549850, 
26073,   0.266461,   9.758136,   0.284054,   0.453232,  36.150832,   0.235760,  -0.005513,  -1.103953,   0.418000, -157.500000, -799.500000,  54.000000,  -1.232083,  89.837320, 101.079272,   0.444137,   0.454600,   0.540273,   0.551486, 
26074,   0.014711,   9.663961,   0.137523,   0.571304,  37.114940,   0.371196,  -0.002411,  -1.097074,   0.432443, -156.000000, -796.500000,  58.500000,  -1.215596,  89.809376, 101.444096,   0.442567,   0.452690,   0.541646,   0.552964, 
26075,   0.119421,   9.953630,   0.274173,   0.357414,  38.057168,   0.330461,  -0.005480,  -1.098340,   0.437305, -157.500000, -796.500000,  60.000000,  -1.210142,  89.777568, 101.819104,   0.440902,   0.450762,   0.542987,   0.554534, 
26076,  -0.036149,   9.824502,   0.035154,   0.270720,  38.850288,   0.372607,  -0.007865,  -1.096348,   0.424016, -159.000000, -796.500000,  55.500000,  -1.194202,  89.773376, 102.201648,   0.439142,   0.448855,   0.544531,   0.555962, 
26077,   0.134920,   9.814993,   0.220685,   0.345323,  39.931456,   0.379100,  -0.007336,  -1.091098,   0.420056, -159.000000, -795.000000,  54.000000,  -1.186448,  89.750240, 102.594120,   0.437369,   0.446868,   0.545990,   0.557550, 
26078,  -0.048022,   9.677777,  -0.163919,   0.654719,  41.206628,   0.349078,  -0.007678,  -1.092728,   0.429131, -159.000000, -795.000000,  57.000000,  -1.169446,  89.766624, 102.996800,   0.435421,   0.444922,   0.547697,   0.558935, 
26079,   0.114950,   9.861312,   0.213224,   0.662244,  42.667180,   0.485347,  -0.018115,  -1.107840,   0.456173, -163.500000, -798.000000,  66.000000,  -1.158379,  89.739760, 103.413856,   0.433539,   0.442768,   0.549221,   0.560600, 
26080,  -0.062221,   9.955298,  -0.015114,   0.331386,  44.107100,   0.301316,  -0.026980,  -1.110009,   0.461683, -168.000000, -798.000000,  67.500000,  -1.145741,  89.751712, 103.845400,   0.431444,   0.440685,   0.550997,   0.562129, 
26081,   0.177043,   9.744081,   0.128099,   0.211460,  45.720620,   0.526895,  -0.025750,  -1.098695,   0.449225, -168.000000, -795.000000,  63.000000,  -1.137697,  89.742936, 104.292344,   0.429321,   0.438460,   0.552699,   0.563819, 
26082,   0.134285,   9.758461,  -0.096406,   0.984567,  46.792804,   0.443257,  -0.026996,  -1.112816,   0.452030, -168.000000, -799.500000,  64.500000,  -1.134797,  89.737752, 104.753168,   0.427080,   0.436197,   0.554438,   0.565551, 
26083,   0.128519,   9.878137,   0.175566,   0.383129,  47.641624,   0.516501,  -0.039289,  -1.120686,   0.461824, -174.000000, -801.000000,  67.500000,  -1.129880,  89.728976, 105.223568,   0.424816,   0.433864,   0.556204,   0.567328, 
26084,   0.245162,   9.942573,   0.119365,   0.473146,  48.039096,   0.390142,  -0.050302,  -1.108823,   0.488117, -180.000000, -795.000000,  75.000000,  -1.140951,  89.717344, 105.700216,   0.422442,   0.431558,   0.557904,   0.569187, 
26085,   0.179857,   9.669184,   0.005314,   0.458289,  48.281520,   0.435866,  -0.050473,  -1.109637,   0.492655, -180.000000, -795.000000,  76.500000,  -1.141390,  89.717232, 106.179704,   0.420051,   0.429218,   0.559698,   0.570947, 
26086,   0.338805,   9.907806,   0.180236,   0.631864,  48.475108,   0.486666,  -0.048292,  -1.118056,   0.491176, -178.500000, -798.000000,  76.500000,  -1.156602,  89.699688, 106.661600,   0.417640,   0.426875,   0.561358,   0.572855, 
26087,   0.220201,   9.694870,  -0.053645,   0.686939,  48.249460,   0.453287,  -0.050473,  -1.109637,   0.492655, -180.000000, -795.000000,  76.500000,  -1.162953,  89.702408, 107.142936,   0.415187,   0.424554,   0.563136,   0.574613, 
26088,   0.225874,   9.879004,   0.343440,   0.251654,  48.235808,   0.486929,  -0.059370,  -1.117419,   0.478859, -184.500000, -798.000000,  72.000000,  -1.168116,  89.683256, 107.624208,   0.412812,   0.422139,   0.564794,   0.576460, 
26089,   0.239695,   9.791890,  -0.011467,   0.533291,  48.130632,   0.341180,  -0.068594,  -1.124024,   0.483791, -189.000000, -799.500000,  73.500000,  -1.179038,  89.679736, 108.104168,   0.410356,   0.419816,   0.566505,   0.578247, 
26090,   0.280007,   9.748812,   0.007951,   0.326527,  47.995564,   0.509594,  -0.068203,  -1.113975,   0.503674, -189.000000, -795.000000,  79.500000,  -1.188803,  89.682936, 108.583464,   0.407872,   0.417501,   0.568234,   0.579974, 
26091,   0.439899,   9.850124,   0.154983,   0.959394,  47.727072,   0.476984,  -0.070726,  -1.107184,   0.514228, -190.500000, -792.000000,  82.500000,  -1.217975,  89.652864, 109.060640,   0.405413,   0.415168,   0.569706,   0.581916, 
26092,   0.326519,   9.750039,   0.199512,   0.130015,  47.221928,   0.476279,  -0.079762,  -1.110168,   0.524275, -195.000000, -792.000000,  85.500000,  -1.235750,  89.647408, 109.533800,   0.402941,   0.412887,   0.571330,   0.583682, 
26093,   0.418609,   9.844769,   0.220328,   0.487264,  46.864960,   0.412951,  -0.083906,  -1.124740,   0.527404, -196.500000, -796.500000,  87.000000,  -1.258473,  89.625824, 110.002704,   0.400509,   0.410583,   0.572819,   0.585509, 
26094,   0.301981,   9.683778,  -0.023207,   0.687673,  46.304524,   0.500935,  -0.095360,  -1.131345,   0.504857, -202.500000, -799.500000,  79.500000,  -1.275991,  89.619016, 110.466816,   0.398067,   0.408322,   0.574377,   0.587218, 
26095,   0.278736,   9.951034,   0.263030,   0.468568,  45.842000,   0.411977,  -0.100081,  -1.118942,   0.507238, -205.500000, -795.000000,  79.500000,  -1.284338,  89.587288, 110.926728,   0.395781,   0.405950,   0.575824,   0.589005, 
26096,   0.177132,   9.906749,   0.147751,   0.300636,  45.352936,   0.375329,  -0.091712,  -1.116410,   0.524993, -201.000000, -793.500000,  85.500000,  -1.291920,  89.578128, 111.381368,   0.393433,   0.403668,   0.577354,   0.590641, 
26097,   0.331617,   9.783422,   0.032556,   0.454706,  45.299120,   0.358664,  -0.096370,  -1.133425,   0.541735, -202.500000, -798.000000,  91.500000,  -1.300308,  89.573816, 111.832536,   0.391074,   0.401417,   0.578883,   0.592231, 
26098,   0.368052,   9.640021,   0.164927,   0.632231,  45.032368,   0.460316,  -0.102353,  -1.137950,   0.537268, -205.500000, -799.500000,  90.000000,  -1.311334,  89.552424, 112.282136,   0.388769,   0.399130,   0.580309,   0.593912, 
26099,   0.327480,   9.916134,   0.176026,   0.508607,  44.676480,   0.391711,  -0.101807,  -1.129893,   0.542961, -205.500000, -796.500000,  91.500000,  -1.324068,  89.532128, 112.728440,   0.386457,   0.396863,   0.581709,   0.595567, 
26100,   0.204045,   9.720626,   0.077595,   0.529665,  44.205092,   0.418380,  -0.102166,  -1.134329,   0.542383, -205.500000, -798.000000,  91.500000,  -1.333376,  89.524456, 113.171088,   0.384129,   0.394632,   0.583161,   0.597121, 
26101,   0.300175,   9.920816,   0.258448,   0.322712,  44.107396,   0.353443,  -0.107620,  -1.133602,   0.533956, -208.500000, -798.000000,  88.500000,  -1.343067,  89.501512, 113.611704,   0.381861,   0.392363,   0.584524,   0.598746, 
26102,   0.234427,   9.763134,   0.032408,   0.674154,  44.053532,   0.417278,  -0.116281,  -1.129344,   0.554233, -213.000000, -795.000000,  94.500000,  -1.350526,  89.491408, 114.050392,   0.379564,   0.390130,   0.585947,   0.600283, 
26103,   0.251137,   9.863609,   0.304077,   0.460382,  44.133728,   0.346725,  -0.124103,  -1.123820,   0.542170, -217.500000, -793.500000,  90.000000,  -1.352082,  89.463936, 114.490712,   0.377335,   0.387788,   0.587285,   0.601876, 
26104,   0.290368,   9.761897,   0.257677,   0.368701,  44.418704,   0.368184,  -0.131162,  -1.141650,   0.535970, -220.500000, -799.500000,  88.500000,  -1.364001,  89.446880, 114.932152,   0.375010,   0.385531,   0.588647,   0.603454, 
26105,   0.267487,   9.712414,   0.223833,   0.645575,  44.631640,   0.383720,  -0.135662,  -1.120012,   0.562771, -223.500000, -790.500000,  96.000000,  -1.366535,  89.421528, 115.376440,   0.372744,   0.383181,   0.590001,   0.605049, 
26106,   0.271052,   9.814983,   0.351995,   0.751308,  44.907280,   0.407188,  -0.131860,  -1.107069,   0.568717, -222.000000, -786.000000,  97.500000,  -1.369568,  89.381376, 115.823088,   0.370495,   0.380758,   0.591259,   0.606705, 
26107,   0.138005,   9.873561,   0.284945,   0.506929,  45.370176,   0.360502,  -0.135679,  -1.122819,   0.553119, -223.500000, -792.000000,  93.000000,  -1.361984,  89.356952, 116.272744,   0.368232,   0.378318,   0.592645,   0.608257, 
26108,   0.236386,   9.786270,   0.296832,   0.605638,  45.806020,   0.395442,  -0.127873,  -1.131150,   0.555529, -219.000000, -795.000000,  94.500000,  -1.359131,  89.321888, 116.726984,   0.365953,   0.375844,   0.593972,   0.609894, 
26109,   0.271008,   9.799046,   0.343132,   0.372053,  46.500424,   0.396503,  -0.124195,  -1.151247,   0.570721, -216.000000, -801.000000, 100.500000,  -1.360310,  89.296384, 117.187176,   0.363572,   0.373375,   0.595327,   0.611485, 
26110,   0.473549,   9.770251,   0.450851,   0.729719,  47.078196,   0.471629,  -0.134899,  -1.143367,   0.568635, -222.000000, -798.000000,  99.000000,  -1.375285,  89.239840, 117.653720,   0.361184,   0.370849,   0.596491,   0.613302, 
26111,   0.414849,   9.734867,   0.538915,   0.492991,  47.443128,   0.405881,  -0.143951,  -1.149157,   0.569029, -226.500000, -799.500000,  99.000000,  -1.395712,  89.188264, 118.125608,   0.358719,   0.368343,   0.597681,   0.615127, 
26112,   0.545977,   9.826859,   0.674512,   0.756447,  48.047844,   0.489151,  -0.149764,  -1.152867,   0.560025, -229.500000, -801.000000,  96.000000,  -1.425759,  89.112192, 118.603096,   0.356231,   0.365767,   0.598694,   0.617096, 
26113,   0.525855,   9.886015,   0.686206,   0.368817,  48.768488,   0.332328,  -0.153346,  -1.156577,   0.578498, -231.000000, -801.000000, 102.000000,  -1.456754,  89.046952, 119.086520,   0.353666,   0.363201,   0.599779,   0.619029, 
26114,   0.452113,   9.759863,   0.680849,   0.511443,  49.320368,   0.465545,  -0.152253,  -1.140464,   0.589883, -231.000000, -795.000000, 105.000000,  -1.469832,  88.971656, 119.577016,   0.351186,   0.360475,   0.600888,   0.620981, 
26115,   0.292093,   9.787294,   0.578166,   1.062809,  49.496924,   0.448647,  -0.148826,  -1.134762,   0.585599, -229.500000, -793.500000, 103.500000,  -1.471345,  88.898800, 120.070336,   0.348724,   0.357667,   0.602025,   0.622866, 
26116,   0.191770,   9.857766,   0.716155,   0.567876,  49.827596,   0.527396,  -0.162194,  -1.155939,   0.593660, -235.500000, -799.500000, 106.500000,  -1.454305,  88.824280, 120.565952,   0.346351,   0.354745,   0.603218,   0.624715, 
26117,   0.073707,   9.811660,   0.662129,   0.415088,  49.987460,   0.406713,  -0.179737,  -1.156656,   0.609795, -244.500000, -798.000000, 111.000000,  -1.429074,  88.761416, 121.065112,   0.343959,   0.351794,   0.604500,   0.626482, 
26118,   0.018209,   9.742960,   0.511964,   0.802688,  50.692520,   0.451552,  -0.181234,  -1.144978,   0.593123, -246.000000, -795.000000, 105.000000,  -1.396035,  88.702640, 121.567720,   0.341561,   0.348782,   0.605813,   0.628194, 
26119,   0.067894,   9.842423,   0.657385,   0.654668,  50.778924,   0.466928,  -0.175796,  -1.148511,   0.591898, -243.000000, -796.500000, 105.000000,  -1.364952,  88.641088, 122.074832,   0.339133,   0.345750,   0.607113,   0.629941, 
26120,   0.006262,   9.770096,   0.352417,   0.587187,  50.511072,   0.438218,  -0.186079,  -1.165615,   0.604750, -247.500000, -801.000000, 109.500000,  -1.327344,  88.611624, 122.580344,   0.336642,   0.342777,   0.608585,   0.631480, 
26121,  -0.065597,   9.850866,   0.222035,   0.955762,  49.941364,   0.333523,  -0.202579,  -1.158639,   0.603312, -256.500000, -798.000000, 108.000000,  -1.291046,  88.592816, 123.080800,   0.334129,   0.339860,   0.610078,   0.632936, 
26122,   0.011127,   9.884817,   0.228204,   0.748411,  49.080088,   0.553817,  -0.198776,  -1.145696,   0.609257, -255.000000, -793.500000, 109.500000,  -1.249658,  88.575032, 123.573040,   0.331685,   0.336961,   0.611563,   0.634348, 
26123,  -0.245227,   9.813413,   0.415425,   0.563118,  47.585228,   0.391772,  -0.201487,  -1.142526,   0.614697, -256.500000, -792.000000, 111.000000,  -1.200005,  88.559864, 124.053824,   0.329332,   0.334074,   0.613031,   0.635672, 
26124,  -0.227398,   9.841510,   0.026527,   0.757429,  46.089920,   0.315129,  -0.206348,  -1.165970,   0.616670, -258.000000, -799.500000, 112.500000,  -1.165220,  88.572936, 124.520504,   0.326889,   0.331418,   0.614558,   0.636837, 
26125,  -0.124017,   9.696492,   0.105822,   0.349267,  45.068408,   0.423027,  -0.203963,  -1.167962,   0.629959, -256.500000, -799.500000, 117.000000,  -1.121656,  88.580400, 124.973832,   0.324585,   0.328768,   0.616040,   0.637971, 
26126,  -0.084362,   9.668610,  -0.239540,   0.763644,  44.422072,   0.432548,  -0.211052,  -1.150760,   0.628703, -261.000000, -793.500000, 115.500000,  -1.075773,  88.608664, 125.418688,   0.322274,   0.326199,   0.617600,   0.638945, 
26127,   0.018814,   9.861608,  -0.018705,   0.572307,  44.169236,   0.383400,  -0.219934,  -1.155735,   0.624560, -265.500000, -795.000000, 114.000000,  -1.053665,  88.643328, 125.859264,   0.319834,   0.323793,   0.619101,   0.639926, 
26128,   0.170488,   9.916631,   0.003839,   0.175960,  43.656412,   0.427942,  -0.226088,  -1.161073,   0.624631, -268.500000, -796.500000, 114.000000,  -1.044859,  88.688264, 126.295680,   0.317319,   0.321510,   0.620609,   0.640875, 
26129,   0.232939,   9.728148,  -0.216675,   0.757974,  42.967804,   0.364100,  -0.231901,  -1.164783,   0.615626, -271.500000, -798.000000, 111.000000,  -1.048437,  88.739744, 126.725912,   0.314748,   0.319340,   0.622091,   0.641793, 
26130,   0.215517,   9.826419,  -0.166902,  -0.097376,  42.249248,   0.368987,  -0.228986,  -1.161525,   0.624955, -270.000000, -796.500000, 114.000000,  -1.054661,  88.804392, 127.149832,   0.312154,   0.317243,   0.623605,   0.642610, 
26131,   0.415195,   9.819345,  -0.398796,   0.942671,  40.778332,   0.222800,  -0.227536,  -1.140976,   0.636917, -270.000000, -789.000000, 117.000000,  -1.086898,  88.855184, 127.561768,   0.309525,   0.315317,   0.624938,   0.643537, 
26132,   0.303632,   9.787893,  -0.262272,   0.009564,  39.173252,   0.400610,  -0.224638,  -1.140525,   0.636593, -268.500000, -789.000000, 117.000000,  -1.108365,  88.933184, 127.958336,   0.306969,   0.313485,   0.626412,   0.644243, 
26133,   0.502769,   9.853302,  -0.102448,   0.401926,  37.328040,   0.216463,  -0.225901,  -1.157453,   0.629746, -268.500000, -795.000000, 115.500000,  -1.155166,  88.971688, 128.337360,   0.304469,   0.311770,   0.627525,   0.645158, 
26134,   0.370419,   9.789506,  -0.427543,   0.248544,  35.526800,   0.268834,  -0.239845,  -1.151653,   0.637059, -276.000000, -792.000000, 117.000000,  -1.188309,  89.050544, 128.697888,   0.302039,   0.310186,   0.628853,   0.645763, 
26135,   0.712611,   9.797147,   0.084979,   0.297427,  33.726148,   0.334080,  -0.247822,  -1.144137,   0.639185, -280.500000, -789.000000, 117.000000,  -1.248446,  89.075888, 129.041504,   0.299701,   0.308703,   0.629763,   0.646685, 
26136,   0.473863,   9.806499,  -0.186498,   0.371461,  31.738774,   0.233831,  -0.251437,  -1.153459,   0.638354, -282.000000, -792.000000, 117.000000,  -1.297653,  89.127088, 129.366192,   0.297461,   0.307330,   0.630800,   0.647385, 
26137,   0.616262,   9.788749,   0.043534,   0.364032,  29.162302,   0.288541,  -0.251437,  -1.153459,   0.638354, -282.000000, -792.000000, 117.000000,  -1.341633,  89.149808, 129.668088,   0.295446,   0.305969,   0.631610,   0.648146, 
26138,   0.499344,   9.692621,  -0.300747,   0.654896,  26.416014,   0.126913,  -0.249256,  -1.161879,   0.636876, -280.500000, -795.000000, 117.000000,  -1.384139,  89.177432, 129.942840,   0.293579,   0.304762,   0.632382,   0.648805, 
26139,   0.444321,   9.847253,   0.099538,  -0.064081,  24.065782,   0.228088,  -0.259180,  -1.174548,   0.650305, -285.000000, -798.000000, 121.500000,  -1.404140,  89.196848, 130.192112,   0.292004,   0.303547,   0.633100,   0.649386, 
26140,   0.534770,  10.006841,   0.130944,   0.099676,  21.973074,   0.057332,  -0.257437,  -1.160790,   0.624235, -285.000000, -795.000000, 112.500000,  -1.449384,  89.206136, 130.419920,   0.290435,   0.302565,   0.633635,   0.650028, 
26141,   0.444381,   9.850225,   0.089508,  -0.239064,  20.249562,   0.149656,  -0.264121,  -1.171379,   0.628266, -288.000000, -798.000000, 114.000000,  -1.478761,  89.233272, 130.627424,   0.289023,   0.301653,   0.634261,   0.650479, 
26142,   0.560235,   9.714602,   0.175000,   0.337155,  18.967718,   0.045233,  -0.257933,  -1.160427,   0.647500, -285.000000, -793.500000, 120.000000,  -1.516134,  89.227152, 130.821456,   0.287729,   0.300773,   0.634639,   0.651096, 
26143,   0.348506,   9.754508,  -0.026353,   0.226289,  17.801996,   0.111297,  -0.258104,  -1.161241,   0.652038, -285.000000, -793.500000, 121.500000,  -1.532707,  89.242336, 131.002440,   0.286565,   0.299899,   0.635150,   0.651501, 
26144,   0.447005,   9.763716,   0.209272,   0.173653,  16.814520,   0.075767,  -0.264976,  -1.175451,   0.650953, -288.000000, -798.000000, 121.500000,  -1.553047,  89.228480, 131.173704,   0.285511,   0.299028,   0.635461,   0.652052, 
26145,   0.220956,   9.789600,   0.129113,   0.174947,  16.057833,  -0.033394,  -0.272048,  -1.155442,   0.659350, -292.500000, -790.500000, 123.000000,  -1.556911,  89.224232, 131.335568,   0.284579,   0.298140,   0.635847,   0.652485, 
26146,   0.214645,   9.877604,   0.168667,   0.044626,  15.925300,   0.084656,  -0.277315,  -1.151095,   0.656038, -295.500000, -789.000000, 121.500000,  -1.552644,  89.222216, 131.492872,   0.283712,   0.297238,   0.636255,   0.652876, 
26147,   0.207531,   9.839927,   0.106621,   0.285514,  15.960036,   0.027006,  -0.274946,  -1.155894,   0.659674, -294.000000, -790.500000, 123.000000,  -1.552617,  89.207512, 131.650712,   0.282850,   0.296325,   0.636581,   0.653348, 
26148,   0.209887,   9.786577,   0.189815,  -0.077506,  15.729808,   0.071135,  -0.271877,  -1.154628,   0.654812, -292.500000, -790.500000, 121.500000,  -1.547745,  89.209088, 131.807064,   0.281983,   0.295434,   0.637008,   0.653715, 
26149,   0.140517,   9.771255,   0.001025,   0.324314,  15.541859,   0.028707,  -0.269371,  -1.164225,   0.634606, -291.000000, -795.000000, 115.500000,  -1.539554,  89.207176, 131.961504,   0.281154,   0.294525,   0.637419,   0.654089, 
26150,   0.137516,   9.834948,   0.077177,   0.152169,  15.525159,   0.165761,  -0.273920,  -1.151007,   0.632449, -294.000000, -790.500000, 114.000000,  -1.521932,  89.212008, 132.114224,   0.280371,   0.293590,   0.637889,   0.654398, 
26151,   0.115245,   9.763060,   0.014405,   0.192006,  16.058149,   0.036422,  -0.274279,  -1.155443,   0.631872, -294.000000, -792.000000, 114.000000,  -1.508737,  89.218584, 132.269592,   0.279541,   0.292667,   0.638358,   0.654709, 
26152,   0.172529,   9.854707,   0.179550,   0.060517,  16.663580,   0.080542,  -0.273344,  -1.177983,   0.633197, -292.500000, -799.500000, 115.500000,  -1.496732,  89.216280, 132.431288,   0.278689,   0.291690,   0.638785,   0.655083, 
26153,   0.183005,   9.838022,   0.230961,   0.059163,  17.402120,   0.119757,  -0.277268,  -1.183322,   0.660746, -294.000000, -799.500000, 124.500000,  -1.488536,  89.204696, 132.599992,   0.277799,   0.290674,   0.639165,   0.655535, 
26154,   0.189007,   9.752839,   0.265177,   0.300317,  18.335394,   0.078075,  -0.273107,  -1.165943,   0.667270, -292.500000, -793.500000, 126.000000,  -1.477895,  89.181408, 132.777176,   0.276903,   0.289568,   0.639507,   0.656067, 
26155,   0.173583,   9.768299,   0.247368,   0.132932,  19.643370,   0.064657,  -0.275834,  -1.165580,   0.663057, -294.000000, -793.500000, 124.500000,  -1.466991,  89.164152, 132.965240,   0.275931,   0.288415,   0.639910,   0.656591, 
26156,   0.204790,   9.869945,   0.494359,   0.271455,  20.639770,   0.144807,  -0.284186,  -1.165305,   0.654953, -298.500000, -793.500000, 121.500000,  -1.458367,  89.118968, 133.165544,   0.274946,   0.287139,   0.640179,   0.657307, 
26157,   0.100941,   9.808635,   0.324166,   0.273441,  21.688834,   0.024220,  -0.294890,  -1.157426,   0.652867, -304.500000, -790.500000, 120.000000,  -1.444106,  89.091664, 133.375064,   0.273895,   0.285824,   0.640586,   0.657933, 
26158,   0.054056,   9.728238,   0.124286,   0.002478,  22.980356,   0.226943,  -0.289607,  -1.158966,   0.665831, -301.500000, -790.500000, 124.500000,  -1.411523,  89.081576, 133.596496,   0.272835,   0.284380,   0.641169,   0.658449, 
26159,   0.143270,   9.875255,   0.316264,   0.376381,  24.304510,   0.141449,  -0.287443,  -1.170192,   0.654700, -300.000000, -795.000000, 121.500000,  -1.395644,  89.049128, 133.832000,   0.271649,   0.282892,   0.641599,   0.659146, 
26160,  -0.082977,   9.772511,   0.129786,   0.306845,  25.968478,   0.205058,  -0.302291,  -1.176885,   0.655743, -307.500000, -796.500000, 121.500000,  -1.359503,  89.047816, 134.081128,   0.270421,   0.281285,   0.642290,   0.659653, 
26161,   0.096651,   9.849887,   0.394391,   0.260822,  28.263684,   0.210518,  -0.292163,  -1.157788,   0.657080, -303.000000, -790.500000, 121.500000,  -1.329667,  89.013536, 134.351520,   0.269116,   0.279517,   0.642826,   0.660411, 
26162,   0.074700,   9.780746,   0.125066,  -0.012494,  30.159322,   0.258592,  -0.286709,  -1.158515,   0.665507, -300.000000, -790.500000, 124.500000,  -1.310126,  89.015416, 134.642176,   0.267547,   0.277779,   0.643595,   0.661038, 
26163,   0.380514,   9.778231,   0.493245,   0.621108,  31.696456,   0.188447,  -0.295045,  -1.155434,   0.667057, -304.500000, -789.000000, 124.500000,  -1.314349,  88.962632, 134.950704,   0.265872,   0.275951,   0.644033,   0.662072, 
26164,   0.101376,   9.809997,   0.226202,   0.403123,  33.102540,   0.202324,  -0.297071,  -1.149006,   0.654346, -306.000000, -787.500000, 120.000000,  -1.297279,  88.950912, 135.272864,   0.264133,   0.274012,   0.644774,   0.662837, 
26165,   0.312027,   9.937894,   0.583139,   0.124227,  34.437900,   0.275194,  -0.296917,  -1.150998,   0.640156, -306.000000, -789.000000, 115.500000,  -1.292097,  88.909672, 135.609520,   0.262310,   0.271991,   0.645346,   0.663827, 
26166,  -0.021747,   9.761105,   0.093055,   0.313887,  35.371200,   0.215538,  -0.305252,  -1.147917,   0.641706, -310.500000, -787.500000, 115.500000,  -1.269372,  88.906208, 135.956288,   0.260438,   0.269898,   0.646202,   0.664588, 
26167,   0.019885,   9.693329,   0.222565,   0.133799,  36.279396,   0.299314,  -0.310081,  -1.165747,   0.662984, -312.000000, -792.000000, 123.000000,  -1.233760,  88.897624, 136.312896,   0.258594,   0.267664,   0.647080,   0.665372, 
26168,   0.016809,   9.702071,  -0.022960,   0.829904,  37.193804,   0.253605,  -0.304985,  -1.170909,   0.670834, -309.000000, -793.500000, 126.000000,  -1.207641,  88.896744, 136.678400,   0.256619,   0.265444,   0.647982,   0.666135, 
26169,   0.104999,   9.845627,   0.125336,   0.328416,  37.738240,   0.379594,  -0.315877,  -1.166650,   0.663633, -315.000000, -792.000000, 123.000000,  -1.186470,  88.907432, 137.051088,   0.254546,   0.263235,   0.648948,   0.666855, 
26170,   0.104022,   9.740513,   0.087486,   0.829600,  38.029940,   0.242348,  -0.318416,  -1.162666,   0.664534, -316.500000, -790.500000, 123.000000,  -1.175622,  88.892784, 137.428592,   0.252444,   0.261002,   0.649754,   0.667752, 
26171,   0.170810,   9.954051,   0.217900,  -0.452464,  37.988100,   0.374464,  -0.320785,  -1.157868,   0.660898, -318.000000, -789.000000, 121.500000,  -1.174213,  88.919784, 137.807472,   0.250185,   0.258906,   0.650783,   0.668436, 
26172,   0.466206,   9.740906,   0.040022,   0.455682,  36.696676,   0.284165,  -0.333452,  -1.172980,   0.660461, -324.000000, -793.500000, 121.500000,  -1.218608,  88.915928, 138.179056,   0.247767,   0.257040,   0.651488,   0.669351, 
26173,   0.214318,   9.700124,  -0.042145,   0.271394,  35.543192,   0.393152,  -0.339419,  -1.174698,   0.665647, -327.000000, -793.500000, 123.000000,  -1.215922,  88.940760, 138.538096,   0.245628,   0.255034,   0.652438,   0.669974, 
26174,   0.388578,   9.738137,   0.109671,   0.492330,  34.330576,   0.329560,  -0.339607,  -1.178319,   0.660532, -327.000000, -795.000000, 121.500000,  -1.235306,  88.940792, 138.885392,   0.243486,   0.253170,   0.653168,   0.670759, 
26175,   0.280541,   9.811566,   0.051277,   0.323151,  33.035866,   0.271816,  -0.337768,  -1.188368,   0.668128, -325.500000, -798.000000, 124.500000,  -1.243713,  88.957432, 139.219600,   0.241447,   0.251351,   0.653991,   0.671398, 
26176,   0.346261,   9.871412,   0.350824,   0.496702,  32.150672,   0.238661,  -0.340120,  -1.180763,   0.674145, -327.000000, -795.000000, 126.000000,  -1.257444,  88.941640, 139.542992,   0.239504,   0.249548,   0.654567,   0.672187, 
26177,   0.217508,   9.806508,   0.084902,   0.072222,  31.597580,   0.320857,  -0.342488,  -1.175964,   0.670509, -328.500000, -793.500000, 124.500000,  -1.260109,  88.960400, 139.859072,   0.237592,   0.247795,   0.655353,   0.672739, 
26178,   0.310598,   9.791825,   0.326307,   0.678546,  31.438732,   0.262827,  -0.336146,  -1.167005,   0.675553, -325.500000, -790.500000, 126.000000,  -1.259778,  88.938008, 140.172400,   0.235802,   0.245955,   0.655899,   0.673516, 
26179,   0.045715,   9.781110,  -0.007149,   0.384023,  31.445600,   0.120457,  -0.341396,  -1.159851,   0.681893, -328.500000, -787.500000, 127.500000,  -1.243915,  88.958720, 140.483680,   0.234021,   0.244124,   0.656727,   0.674009, 
26180,   0.153446,   9.791478,   0.220086,   0.406407,  31.715352,   0.308258,  -0.354593,  -1.180213,   0.685417, -334.500000, -793.500000, 129.000000,  -1.225426,  88.944992, 140.797536,   0.232310,   0.242188,   0.657351,   0.674688, 
26181,  -0.122989,   9.841087,   0.026256,   0.459292,  32.125912,   0.210733,  -0.357337,  -1.182657,   0.671551, -336.000000, -795.000000, 124.500000,  -1.188587,  88.956096, 141.114032,   0.230633,   0.240176,   0.658154,   0.675184, 
26182,  -0.149090,   9.847248,   0.124623,   0.073590,  32.792388,   0.288915,  -0.356978,  -1.178222,   0.672129, -336.000000, -793.500000, 124.500000,  -1.139582,  88.966488, 141.436176,   0.228995,   0.238057,   0.658989,   0.675671, 
26183,  -0.236745,   9.814919,  -0.060117,   0.580735,  33.596240,   0.184042,  -0.359860,  -1.175867,   0.682105, -337.500000, -792.000000, 127.500000,  -1.086531,  88.975544, 141.765584,   0.227342,   0.235870,   0.659839,   0.676175, 
26184,  -0.413663,   9.755289,  -0.056230,   0.249881,  34.998360,   0.338753,  -0.367837,  -1.168350,   0.684232, -342.000000, -789.000000, 127.500000,  -1.011953,  88.997352, 142.105440,   0.225725,   0.233519,   0.660823,   0.676580, 
26185,  -0.192840,   9.807797,   0.002106,   0.479873,  36.546640,   0.335917,  -0.376360,  -1.168890,   0.680667, -346.500000, -789.000000, 126.000000,  -0.959223,  89.007608, 142.461296,   0.223905,   0.231173,   0.661704,   0.677108, 
26186,  -0.391047,   9.866492,  -0.162806,   0.393315,  38.209160,   0.301646,  -0.379633,  -1.176583,   0.670761, -348.000000, -792.000000, 123.000000,  -0.891779,  89.043352, 142.832592,   0.222030,   0.228699,   0.662795,   0.677492, 
26187,  -0.260676,   9.809794,  -0.075512,   0.581567,  39.891352,   0.373254,  -0.367699,  -1.173149,   0.660390, -342.000000, -792.000000, 120.000000,  -0.836413,  89.060192, 143.220288,   0.220027,   0.226163,   0.663781,   0.678043, 
26188,  -0.444480,   9.810653,  -0.206914,   0.452822,  41.624996,   0.310772,  -0.382735,  -1.183463,   0.656317, -349.500000, -795.000000, 118.500000,  -0.764885,  89.098784, 143.625008,   0.217973,   0.223469,   0.664946,   0.678458, 
26189,  -0.299598,   9.844232,  -0.148697,   0.387627,  43.434120,   0.348965,  -0.386692,  -1.194414,   0.664561, -351.000000, -798.000000, 121.500000,  -0.704002,  89.131992, 144.047632,   0.215758,   0.220716,   0.666075,   0.678944, 
26190,  -0.497569,   9.800359,  -0.275776,   0.576296,  45.432124,   0.327555,  -0.383060,  -1.182285,   0.675044, -349.500000, -793.500000, 124.500000,  -0.632900,  89.170248, 144.489360,   0.213483,   0.217799,   0.667287,   0.679421, 
26191,  -0.224984,   9.767421,  -0.247341,   0.623162,  47.214096,   0.519285,  -0.390149,  -1.165083,   0.673789, -354.000000, -787.500000, 123.000000,  -0.581442,  89.205792, 144.950080,   0.210986,   0.214877,   0.668472,   0.679979, 
26192,  -0.405191,   9.893775,  -0.185319,   0.552739,  49.132828,   0.340827,  -0.396850,  -1.178478,   0.668167, -357.000000, -792.000000, 121.500000,  -0.525629,  89.249152, 145.429600,   0.208383,   0.211823,   0.669719,   0.680494, 
26193,  -0.258524,   9.740609,  -0.162101,   0.604389,  51.475612,   0.416865,  -0.412057,  -1.189607,   0.668632, -364.500000, -795.000000, 121.500000,  -0.478428,  89.284112, 145.930224,   0.205623,   0.208679,   0.670937,   0.681114, 
26194,  -0.203192,   9.890615,  -0.197389,   0.571930,  53.687540,   0.378446,  -0.407350,  -1.164171,   0.680848, -363.000000, -786.000000, 124.500000,  -0.435862,  89.322656, 146.454496,   0.202686,   0.205424,   0.672195,   0.681750, 
26195,  -0.095160,   9.872178,  -0.087875,   0.816386,  56.685368,   0.295153,  -0.409889,  -1.160187,   0.681749, -364.500000, -784.500000, 124.500000,  -0.439878,  89.345376, 147.003328,   0.199353,   0.202264,   0.673293,   0.682580, 
26196,   0.133809,   9.953431,   0.242476,  -0.003465,  58.920196,   0.517292,  -0.422761,  -1.181727,   0.666546, -370.500000, -792.000000, 120.000000,  -0.436319,  89.371808, 147.579872,   0.195894,   0.198901,   0.674476,   0.683423, 
26197,  -0.007822,   9.741570,  -0.236166,   0.980920,  61.185704,   0.394328,  -0.428557,  -1.182630,   0.667194, -373.500000, -792.000000, 120.000000,  -0.446044,  89.390096, 148.178656,   0.192229,   0.195460,   0.675589,   0.684336, 
26198,   0.229286,   9.794513,   0.011735,  -0.254824,  63.039756,   0.579011,  -0.429787,  -1.193945,   0.679651, -373.500000, -795.000000, 124.500000,  -0.460409,  89.428968, 148.797392,   0.188383,   0.191959,   0.676847,   0.685162, 
26199,   0.137206,   9.750418,  -0.225636,   1.529901,  63.737700,   0.437013,  -0.440866,  -1.193307,   0.667335, -379.500000, -795.000000, 120.000000,  -0.483397,  89.426808, 149.429936,   0.184464,   0.188354,   0.677843,   0.686239, 
26200,   0.149167,   9.979137,   0.050215,  -0.203431,  63.893576,   0.568638,  -0.442517,  -1.179638,   0.664854, -381.000000, -790.500000, 118.500000,  -0.503507,  89.467760, 150.066512,   0.180463,   0.184770,   0.679091,   0.687041, 
26201,   0.211379,   9.797819,  -0.137707,   0.803932,  63.277024,   0.481752,  -0.445570,  -1.178097,   0.679367, -382.500000, -789.000000, 123.000000,  -0.535489,  89.484984, 150.700096,   0.176445,   0.181232,   0.680158,   0.687978, 
26202,   0.126115,   9.726494,  -0.047505,   0.590629,  62.557248,   0.536237,  -0.456836,  -1.181080,   0.661936, -388.500000, -790.500000, 117.000000,  -0.537928,  89.519528, 151.326496,   0.172613,   0.177576,   0.681338,   0.688726, 
26203,   0.242342,   9.773178,   0.015949,   0.999951,  61.381592,   0.441533,  -0.452179,  -1.164065,   0.645195, -387.000000, -786.000000, 111.000000,  -0.547781,  89.535344, 151.944416,   0.168816,   0.173985,   0.682375,   0.689577, 
26204,   0.157249,   9.635469,  -0.422090,   1.321274,  60.011056,   0.464237,  -0.461727,  -1.169492,   0.668854, -391.500000, -786.000000, 118.500000,  -0.554531,  89.586544, 152.548816,   0.165058,   0.170495,   0.683572,   0.690152, 
26205,   0.407304,   9.881327,  -0.028779,   0.919883,  58.490612,   0.424099,  -0.466760,  -1.193750,   0.675366, -393.000000, -793.500000, 121.500000,  -0.584702,  89.616440, 153.139152,   0.161278,   0.167197,   0.684586,   0.690866, 
26206,   0.371939,   9.848955,  -0.339492,   1.260770,  56.479120,   0.366008,  -0.469738,  -1.167588,   0.651676, -396.000000, -786.000000, 112.500000,  -0.626423,  89.668328, 153.711776,   0.157498,   0.164095,   0.685660,   0.691404, 
26207,   0.602060,   9.802701,  -0.118267,   0.338257,  54.373044,   0.379348,  -0.474662,  -1.161612,   0.639289, -399.000000, -784.500000, 108.000000,  -0.689733,  89.720048, 154.263712,   0.153713,   0.161242,   0.686667,   0.691930, 
26208,   0.488723,   9.728417,  -0.600736,   1.115929,  52.244964,   0.332700,  -0.478277,  -1.170934,   0.638458, -400.500000, -787.500000, 108.000000,  -0.754088,  89.776472, 154.793904,   0.150047,   0.158527,   0.687666,   0.692388, 
26209,   0.622768,   9.892128,   0.048374,   0.429533,  50.574376,   0.373784,  -0.486955,  -1.169483,   0.649083, -405.000000, -786.000000, 111.000000,  -0.824031,  89.795448, 155.305760,   0.146504,   0.155898,   0.688378,   0.693018, 
26210,   0.654288,   9.919274,  -0.000945,   0.301156,  48.857116,   0.237425,  -0.485458,  -1.181160,   0.665753, -403.500000, -789.000000, 117.000000,  -0.915278,  89.819024, 155.800912,   0.142927,   0.153503,   0.689071,   0.693623, 
26211,   0.908189,   9.627550,  -0.025809,   0.422953,  47.319088,   0.472529,  -0.490895,  -1.177627,   0.666979, -406.500000, -787.500000, 117.000000,  -1.018759,  89.828504, 156.279680,   0.139391,   0.151260,   0.689631,   0.694287, 
26212,   0.805842,   9.796659,   0.143510,   0.907552,  45.057600,   0.298441,  -0.493793,  -1.178079,   0.667303, -408.000000, -787.500000, 117.000000,  -1.113311,  89.810176, 156.739840,   0.136053,   0.149038,   0.689993,   0.695058, 
26213,   0.672991,   9.758951,   0.055149,   0.438530,  42.790500,   0.340025,  -0.496691,  -1.178530,   0.667627, -409.500000, -787.500000, 117.000000,  -1.187011,  89.809608, 157.177104,   0.132956,   0.146850,   0.690465,   0.695666, 
26214,   0.882789,   9.991954,   0.457004,   0.076751,  39.188168,   0.254632,  -0.509967,  -1.172280,   0.647137, -417.000000, -786.000000, 109.500000,  -1.236551,  89.796336, 157.585488,   0.130194,   0.144674,   0.690847,   0.696279, 
26215,   0.798881,   9.810092,   0.243795,   0.310280,  35.015656,   0.270102,  -0.515951,  -1.176804,   0.642670, -420.000000, -787.500000, 108.000000,  -1.333133,  89.777888, 157.954592,   0.127387,   0.143011,   0.691071,   0.696907, 
26216,   0.911962,   9.834401,   0.588720,   0.395184,  30.558312,   0.183142,  -0.513566,  -1.178796,   0.655959, -418.500000, -787.500000, 112.500000,  -1.336288,  89.774728, 158.280800,   0.125387,   0.141059,   0.691451,   0.697288, 
26217,   0.716984,   9.752551,   0.539408,   0.279757,  26.697822,   0.174203,  -0.517523,  -1.189747,   0.664202, -420.000000, -790.500000, 115.500000,  -1.404921,  89.722536, 158.566048,   0.123299,   0.139698,   0.691403,   0.697991, 
26218,   0.803250,   9.762294,   0.832189,   0.476207,  23.103178,   0.103800,  -0.520250,  -1.189385,   0.659989, -421.500000, -790.500000, 114.000000,  -1.407203,  89.720104, 158.812416,   0.121788,   0.138223,   0.691690,   0.698278, 
26219,   0.408614,   9.783395,   0.514704,   0.448275,  20.274352,   0.088045,  -0.522464,  -1.186578,   0.642163, -423.000000, -790.500000, 108.000000,  -1.417859,  89.693032, 159.027440,   0.120445,   0.136961,   0.691768,   0.698678, 
26220,   0.650734,   9.950291,   1.121541,  -0.080113,  17.215740,   0.141021,  -0.524816,  -1.178973,   0.648180, -424.500000, -787.500000, 109.500000,  -1.440545,  89.649008, 159.214048,   0.119221,   0.135925,   0.691689,   0.699156, 
26221,   0.211488,   9.762983,   0.480762,   0.188435,  14.803139,  -0.107755,  -0.525004,  -1.182594,   0.643065, -424.500000, -789.000000, 108.000000,  -1.436687,  89.623952, 159.372784,   0.118305,   0.134917,   0.691725,   0.699464, 
26222,   0.725959,   9.844910,   1.062424,  -0.265379,  12.367908,   0.113770,  -0.516122,  -1.177618,   0.647208, -420.000000, -787.500000, 109.500000,  -1.445147,  89.582056, 159.507360,   0.117481,   0.134113,   0.691615,   0.699862, 
26223,   0.497191,   9.648884,   0.519994,   0.322058,  10.079319,  -0.094477,  -0.521714,  -1.172094,   0.662623, -423.000000, -784.500000, 114.000000,  -1.461831,  89.556512, 159.617696,   0.116735,   0.133522,   0.691567,   0.700145, 
26224,   0.688746,   9.797688,   0.973917,  -0.085506,   7.883189,   0.129872,  -0.530254,  -1.175441,   0.649405, -427.500000, -786.000000, 109.500000,  -1.475858,  89.512128, 159.706528,   0.116158,   0.133026,   0.691382,   0.700516, 
26225,   0.614856,   9.782422,   0.905159,   0.141294,   5.703432,  -0.026263,  -0.536237,  -1.179964,   0.644938, -430.500000, -787.500000, 108.000000,  -1.477061,  89.511544, 159.772096,   0.115751,   0.132637,   0.691453,   0.700588, 
26226,   0.425300,   9.975785,   1.250108,   0.410350,   3.934674,  -0.197839,  -0.539494,  -1.184852,   0.644685, -432.000000, -789.000000, 108.000000,  -1.477183,  89.512776, 159.817968,   0.115469,   0.132362,   0.691514,   0.700627, 
26227,   0.312317,   9.696517,   0.094910,  -1.161430,   2.495363,   0.024229,  -0.528089,  -1.186666,   0.638273, -426.000000, -790.500000, 106.500000,  -1.487726,  89.536176, 159.847632,   0.115196,   0.132271,   0.691679,   0.700527, 
26228,   0.439888,   9.591331,   0.627790,   0.780555,   1.262099,  -0.016901,  -0.530800,  -1.183497,   0.643713, -427.500000, -789.000000, 108.000000,  -1.500605,  89.497680, 159.865200,   0.115055,   0.132205,   0.691449,   0.700789, 
26229,  -0.011524,   9.730926,  -0.224397,   0.292645,   1.023698,  -0.081631,  -0.524287,  -1.173723,   0.644220, -424.500000, -786.000000, 108.000000,  -1.469513,  89.522720, 159.873008,   0.115167,   0.131994,   0.691648,   0.700616, 
26230,   0.177255,   9.994475,   0.497058,  -0.742233,   1.661230,   0.035301,  -0.522340,  -1.153537,   0.632917, -424.500000, -780.000000, 103.500000,  -1.454605,  89.507168, 159.885712,   0.115198,   0.131811,   0.691585,   0.700708, 
26231,   0.236684,   9.771574,  -0.062585,   0.323649,   1.548298,  -0.115483,  -0.536300,  -1.150545,   0.630577, -432.000000, -778.500000, 102.000000,  -1.455733,  89.499096, 159.899392,   0.115117,   0.131727,   0.691551,   0.700772, 
26232,   0.089262,   9.782747,   0.147405,  -0.479144,   2.016300,   0.005828,  -0.537001,  -1.156609,   0.639074, -432.000000, -780.000000, 105.000000,  -1.432506,  89.508472, 159.914512,   0.115155,   0.131504,   0.691653,   0.700709, 
26233,   0.309038,   9.837925,   0.326327,   0.495831,   2.464244,  -0.097313,  -0.529178,  -1.162134,   0.651137, -427.500000, -781.500000, 109.500000,  -1.435023,  89.463776, 159.935904,   0.115060,   0.131345,   0.691401,   0.701002, 
26234,   0.101498,   9.764120,   0.250828,  -0.341421,   3.597540,   0.027703,  -0.544573,  -1.176884,   0.646488, -435.000000, -786.000000, 108.000000,  -1.416629,  89.455272, 159.963616,   0.115012,   0.131058,   0.691403,   0.701064, 
26235,   0.322496,   9.880856,   0.725408,   0.074698,   5.045244,  -0.038691,  -0.549076,  -1.195892,   0.649039, -436.500000, -792.000000, 109.500000,  -1.416374,  89.382128, 160.007008,   0.114831,   0.130721,   0.691006,   0.701549, 
26236,   0.292034,   9.800263,   0.454765,  -0.021635,   6.593303,  -0.039324,  -0.537109,  -1.186844,   0.657973, -430.500000, -789.000000, 112.500000,  -1.417420,  89.338792, 160.064016,   0.114525,   0.130340,   0.690806,   0.701870, 
26237,   0.270598,   9.847049,   0.904408,  -0.158378,   8.408666,   0.027200,  -0.524816,  -1.178973,   0.648180, -424.500000, -787.500000, 109.500000,  -1.411262,  89.301592, 160.137776,   0.114153,   0.129822,   0.690670,   0.702163, 
26238,   0.365086,   9.731409,   0.600574,   0.213387,  10.293380,  -0.032884,  -0.519208,  -1.181691,   0.642416, -421.500000, -789.000000, 108.000000,  -1.422550,  89.231992, 160.230272,   0.113597,   0.129264,   0.690338,   0.702688, 
26239,   0.237687,   9.836591,   0.880549,  -0.228344,  12.634542,   0.084104,  -0.541333,  -1.174803,   0.637089, -433.500000, -786.000000, 105.000000,  -1.414743,  89.150024, 160.344320,   0.113037,   0.128449,   0.689975,   0.703290, 
26240,   0.414474,   9.849073,   0.774662,   0.251077,  14.895796,   0.064772,  -0.534103,  -1.156158,   0.638751, -430.500000, -780.000000, 105.000000,  -1.429634,  89.066032, 160.481744,   0.112197,   0.127630,   0.689592,   0.703941, 
26241,   0.132189,   9.696674,   0.720323,  -0.060867,  17.410974,   0.057672,  -0.526313,  -1.167296,   0.631508, -426.000000, -784.500000, 103.500000,  -1.412889,  89.002472, 160.642880,   0.111378,   0.126495,   0.689396,   0.704462, 
26242,   0.370545,   9.805345,   0.657845,   0.303931,  20.257184,   0.145136,  -0.531004,  -1.189925,   0.628945, -427.500000, -792.000000, 103.500000,  -1.421159,  88.929984, 160.831200,   0.110249,   0.125343,   0.689146,   0.705086, 
26243,   0.172512,   9.809458,   0.677618,   0.163877,  22.792902,   0.173173,  -0.544948,  -1.184125,   0.636257, -435.000000, -789.000000, 105.000000,  -1.408542,  88.870016, 161.046240,   0.109067,   0.123915,   0.689026,   0.705641, 
26244,   0.287320,   9.821651,   0.826679,  -0.002755,  25.532196,   0.181325,  -0.559250,  -1.182762,   0.642993, -442.500000, -787.500000, 106.500000,  -1.400471,  88.801960, 161.287056,   0.107705,   0.122354,   0.688878,   0.706274, 
26245,   0.236534,   9.776979,   0.525811,   0.276590,  28.102980,   0.103401,  -0.559796,  -1.190818,   0.637300, -442.500000, -790.500000, 105.000000,  -1.402895,  88.753504, 161.554512,   0.106094,   0.120717,   0.688867,   0.706825, 
26246,   0.296279,   9.806374,   0.830932,   0.167931,  30.482854,   0.402674,  -0.541333,  -1.174803,   0.637089, -433.500000, -786.000000, 105.000000,  -1.388623,  88.683008, 161.846784,   0.104451,   0.118808,   0.688755,   0.707507, 
26247,   0.235577,   9.652753,   0.597719,   0.621212,  32.567996,   0.143011,  -0.534306,  -1.162585,   0.623983, -430.500000, -783.000000, 100.500000,  -1.394548,  88.621464, 162.162320,   0.102529,   0.116892,   0.688689,   0.708162, 
26248,   0.232177,   9.855229,   0.685701,   0.079788,  34.681416,   0.329314,  -0.545915,  -1.167198,   0.615626, -436.500000, -784.500000,  97.500000,  -1.377039,  88.573432, 162.497488,   0.100611,   0.114727,   0.688747,   0.708731, 
26249,   0.307302,   9.758772,   0.629605,   0.713114,  35.806448,   0.271184,  -0.558191,  -1.172262,   0.635072, -442.500000, -784.500000, 103.500000,  -1.392384,  88.510272, 162.849904,   0.098400,   0.112649,   0.688693,   0.709432, 
26250,   0.138469,   9.710250,   0.396969,   0.285113,  36.830944,   0.371700,  -0.555293,  -1.171811,   0.634748, -441.000000, -784.500000, 103.500000,  -1.378843,  88.491344, 163.211600,   0.096261,   0.110376,   0.688945,   0.709847, 
26251,   0.394899,   9.885234,   0.756049,   0.566630,  37.497052,   0.290904,  -0.555839,  -1.179867,   0.629056, -441.000000, -787.500000, 102.000000,  -1.387923,  88.430416, 163.582944,   0.093962,   0.108147,   0.688903,   0.710518, 
26252,   0.141802,   9.819974,   0.175756,   0.533201,  37.585960,   0.266006,  -0.569800,  -1.176875,   0.626716, -448.500000, -786.000000, 100.500000,  -1.380479,  88.427320, 163.956608,   0.091692,   0.105852,   0.689238,   0.710832, 
26253,   0.360297,   9.835911,   0.661921,   0.336039,  37.640356,   0.377939,  -0.574691,  -1.165286,   0.633634, -451.500000, -781.500000, 102.000000,  -1.373610,  88.390032, 164.331840,   0.089440,   0.103523,   0.689361,   0.711353, 
26254,   0.145488,   9.853606,   0.194692,   0.427072,  37.256548,   0.163252,  -0.575905,  -1.173793,   0.655744, -451.500000, -783.000000, 109.500000,  -1.365077,  88.387688, 164.704608,   0.087179,   0.101226,   0.689688,   0.711648, 
26255,   0.207559,   9.821997,   0.215789,   0.239634,  36.563884,   0.314237,  -0.575921,  -1.176600,   0.646092, -451.500000, -784.500000, 106.500000,  -1.343673,  88.390056, 165.071360,   0.085027,   0.098886,   0.690034,   0.711887, 
26256,   0.167153,   9.824665,   0.139949,   0.479744,  35.646652,   0.230962,  -0.578681,  -1.181850,   0.622573, -453.000000, -787.500000,  99.000000,  -1.333116,  88.399864, 165.430560,   0.082850,   0.096664,   0.690411,   0.712083, 
26257,   0.117266,   9.814700,  -0.112429,   0.348348,  34.508076,   0.183177,  -0.578836,  -1.179858,   0.636763, -453.000000, -786.000000, 103.500000,  -1.312486,  88.438208, 165.778064,   0.080785,   0.094470,   0.690964,   0.712093, 
26258,   0.237674,   9.817138,  -0.097956,   0.415611,  33.502984,   0.235685,  -0.578819,  -1.177051,   0.646415, -453.000000, -784.500000, 106.500000,  -1.308706,  88.475240, 166.116000,   0.078677,   0.092434,   0.691474,   0.712103, 
26259,   0.205246,   9.810166,  -0.091121,   0.181831,  32.445096,   0.266532,  -0.582280,  -1.188366,   0.631395, -454.500000, -789.000000, 102.000000,  -1.301844,  88.521480, 166.442336,   0.076654,   0.090452,   0.692022,   0.712035, 
26260,   0.257882,   9.709671,  -0.186404,   0.307608,  31.261456,   0.220779,  -0.586316,  -1.172705,   0.615625, -457.500000, -784.500000,  96.000000,  -1.300048,  88.570416, 166.757552,   0.074668,   0.088569,   0.692575,   0.711948, 
26261,   0.170417,   9.831505,  -0.050054,   0.318385,  30.621150,   0.261739,  -0.587609,  -1.154599,   0.613721, -459.000000, -778.500000,  94.500000,  -1.288736,  88.607648, 167.063920,   0.072805,   0.086671,   0.693053,   0.711917, 
26262,   0.283638,   9.786805,  -0.092323,   0.381970,  30.114268,   0.323058,  -0.594652,  -1.169624,   0.617175, -462.000000, -783.000000,  96.000000,  -1.292864,  88.641024, 167.364432,   0.070889,   0.084901,   0.693489,   0.711913, 
26263,   0.232489,   9.906029,   0.096229,  -0.074839,  29.928028,   0.227687,  -0.593171,  -1.184107,   0.624193, -460.500000, -787.500000,  99.000000,  -1.288388,  88.674080, 167.661760,   0.069043,   0.083092,   0.693906,   0.711882, 
26264,   0.268797,   9.719115,  -0.204611,   0.213978,  29.607060,   0.216463,  -0.586333,  -1.175511,   0.605973, -457.500000, -786.000000,  93.000000,  -1.291387,  88.713976, 167.956336,   0.067166,   0.081349,   0.694358,   0.711812, 
26265,   0.191248,   9.813670,  -0.038108,   0.204312,  29.509580,   0.284248,  -0.594514,  -1.174422,   0.593332, -462.000000, -786.000000,  88.500000,  -1.282292,  88.741216, 168.248992,   0.065384,   0.079535,   0.694739,   0.711811, 
26266,   0.220607,   9.737485,  -0.126466,   0.367521,  29.499874,   0.198844,  -0.603191,  -1.172970,   0.603956, -466.500000, -784.500000,  91.500000,  -1.285437,  88.771896, 168.541040,   0.063530,   0.077801,   0.695133,   0.711795, 
26267,   0.166715,   9.781945,  -0.084345,   0.262783,  29.331166,   0.212099,  -0.608441,  -1.165816,   0.610297, -469.500000, -781.500000,  93.000000,  -1.275265,  88.801352, 168.832544,   0.061762,   0.075985,   0.695521,   0.711773, 
26268,   0.222895,   9.908090,  -0.037218,   0.138781,  28.948940,   0.212645,  -0.612056,  -1.175139,   0.609466, -471.000000, -784.500000,  93.000000,  -1.279494,  88.830320, 169.121792,   0.059920,   0.074270,   0.695880,   0.711745, 
26269,   0.165606,   9.781652,  -0.241928,   0.278100,  28.281662,   0.254542,  -0.615484,  -1.180840,   0.613750, -472.500000, -786.000000,  94.500000,  -1.276527,  88.873200, 169.405136,   0.058151,   0.072552,   0.696325,   0.711625, 
26270,   0.285547,   9.861728,  -0.029110,   0.179564,  27.854456,   0.167540,  -0.612585,  -1.180389,   0.613426, -471.000000, -786.000000,  94.500000,  -1.280975,  88.902616, 169.683056,   0.056379,   0.070905,   0.696680,   0.711588, 
26271,   0.144226,   9.777694,  -0.291073,   0.043617,  27.143442,   0.231737,  -0.606635,  -1.181478,   0.598588, -468.000000, -787.500000,  90.000000,  -1.278586,  88.954792, 169.954768,   0.054675,   0.069263,   0.697176,   0.711406, 
26272,   0.269857,   9.827803,  -0.181513,   0.336801,  26.404642,   0.274058,  -0.606309,  -1.182655,   0.579861, -468.000000, -789.000000,  84.000000,  -1.284658,  88.987872, 170.219824,   0.052973,   0.067704,   0.697540,   0.711336, 
26273,   0.138050,   9.885799,  -0.258587,   0.105939,  25.621922,   0.187985,  -0.611389,  -1.174688,   0.581663, -471.000000, -786.000000,  84.000000,  -1.281896,  89.038792, 170.477040,   0.051363,   0.066143,   0.698000,   0.711133, 
26274,   0.302482,   9.874362,  -0.186549,   0.029357,  24.839736,   0.277680,  -0.611731,  -1.176317,   0.590739, -471.000000, -786.000000,  87.000000,  -1.293885,  89.082208, 170.726576,   0.049717,   0.064716,   0.698401,   0.710980, 
26275,   0.164951,   9.914556,  -0.209383,   0.050147,  24.314182,   0.146730,  -0.617014,  -1.174776,   0.577774, -474.000000, -786.000000,  82.500000,  -1.292639,  89.128152, 170.968832,   0.048196,   0.063251,   0.698821,   0.710803, 
26276,   0.301078,   9.758121,  -0.276934,   0.151556,  24.153998,   0.179813,  -0.623510,  -1.181744,   0.586919, -477.000000, -787.500000,  85.500000,  -1.296655,  89.174712, 171.207568,   0.046665,   0.061839,   0.699241,   0.710622, 
26277,   0.153627,   9.871179,  -0.092316,   0.055215,  24.448834,   0.193660,  -0.620579,  -1.175679,   0.605900, -475.500000, -784.500000,  91.500000,  -1.285251,  89.205592, 171.446864,   0.045235,   0.060321,   0.699572,   0.710530, 
26278,   0.076207,   9.807578,  -0.324609,   0.141847,  24.910172,   0.184438,  -0.628401,  -1.170154,   0.593838, -480.000000, -783.000000,  87.000000,  -1.273365,  89.253144, 171.690512,   0.043773,   0.058778,   0.699998,   0.710329, 
26279,   0.084532,   9.796576,  -0.216161,   0.237008,  25.856040,   0.220664,  -0.635119,  -1.186356,   0.578563, -483.000000, -789.000000,  82.500000,  -1.252099,  89.284024, 171.941296,   0.042332,   0.057125,   0.700321,   0.710220, 
26280,   0.101364,   9.812524,  -0.178648,   0.249383,  27.107304,   0.215955,  -0.631846,  -1.178663,   0.588469, -481.500000, -786.000000,  85.500000,  -1.237265,  89.316640, 172.203520,   0.040782,   0.055441,   0.700656,   0.710107, 
26281,   0.140278,   9.896079,  -0.177383,   0.099767,  28.188992,   0.221922,  -0.636737,  -1.167073,   0.595387, -484.500000, -781.500000,  87.000000,  -1.222528,  89.354168, 172.476512,   0.039163,   0.053694,   0.701026,   0.709968, 
26282,   0.103618,   9.823912,  -0.269509,   0.098564,  29.233982,   0.269484,  -0.640523,  -1.177210,   0.599094, -486.000000, -784.500000,  88.500000,  -1.214430,  89.396656, 172.760608,   0.037433,   0.051920,   0.701429,   0.709806, 
26283,   0.135918,   9.738817,  -0.340670,   0.447865,  30.212842,   0.300393,  -0.643438,  -1.180469,   0.589765, -487.500000, -786.000000,  85.500000,  -1.208683,  89.432752, 173.055152,   0.035628,   0.050092,   0.701790,   0.709681, 
26284,   0.122559,   9.754746,  -0.297152,   0.563907,  31.145762,   0.325982,  -0.639839,  -1.173952,   0.580943, -486.000000, -784.500000,  82.500000,  -1.202623,  89.465824, 173.359664,   0.033765,   0.048199,   0.702121,   0.709561, 
26285,   0.101846,   9.912975,  -0.139887,   0.394751,  31.786406,   0.281349,  -0.636583,  -1.169065,   0.581197, -484.500000, -783.000000,  82.500000,  -1.193474,  89.493736, 173.671968,   0.031876,   0.046236,   0.702424,   0.709475, 
26286,   0.106465,   9.871008,  -0.179750,   0.156203,  32.463078,   0.292678,  -0.645994,  -1.179291,   0.581014, -489.000000, -786.000000,  82.500000,  -1.190723,  89.531440, 173.990864,   0.029904,   0.044275,   0.702787,   0.709332, 
26287,   0.191147,   9.882130,  -0.131898,   0.101587,  33.004414,   0.206928,  -0.651089,  -1.174130,   0.573164, -492.000000, -784.500000,  79.500000,  -1.186804,  89.559088, 174.315376,   0.027909,   0.042267,   0.703091,   0.709252, 
26288,   0.204957,   9.859239,  -0.104073,   0.140098,  33.441680,   0.301184,  -0.662135,  -1.167879,   0.580153, -498.000000, -781.500000,  81.000000,  -1.189367,  89.586840, 174.645392,   0.025841,   0.040264,   0.703375,   0.709154, 
26289,   0.164534,   9.771660,  -0.267516,   0.299904,  33.771236,   0.261417,  -0.662869,  -1.179557,   0.569345, -498.000000, -786.000000,  78.000000,  -1.183334,  89.621216, 174.978672,   0.023803,   0.038188,   0.703700,   0.709009, 
26290,   0.212848,   9.792620,  -0.205568,   0.370166,  34.116852,   0.228684,  -0.652010,  -1.189428,   0.557242, -492.000000, -790.500000,  75.000000,  -1.183411,  89.647064, 175.315392,   0.021712,   0.036125,   0.703970,   0.708919, 
26291,   0.163136,   9.728544,  -0.242376,   0.343758,  34.356564,   0.318715,  -0.656885,  -1.175033,   0.573812, -495.000000, -784.500000,  79.500000,  -1.179503,  89.675104, 175.655216,   0.019625,   0.034018,   0.704257,   0.708815, 
26292,   0.208855,   9.806285,  -0.235687,   0.615278,  34.587724,   0.222345,  -0.660329,  -1.183541,   0.568444, -496.500000, -787.500000,  78.000000,  -1.178499,  89.701008, 175.997616,   0.017506,   0.031912,   0.704514,   0.708709, 
26293,   0.113219,   9.807208,  -0.063809,   0.387493,  34.917808,   0.305960,  -0.648208,  -1.176485,   0.563188, -490.500000, -786.000000,  76.500000,  -1.173997,  89.722600, 176.342544,   0.015394,   0.029766,   0.704736,   0.708620, 
26294,   0.152783,   9.797524,  -0.168832,   0.376306,  35.611440,   0.255306,  -0.649892,  -1.168428,   0.541402, -492.000000, -784.500000,  69.000000,  -1.169738,  89.743624, 176.692720,   0.013250,   0.027588,   0.704956,   0.708535, 
26295,   0.120662,   9.924798,  -0.043214,   0.516620,  36.387968,   0.248407,  -0.666767,  -1.168693,   0.529733, -501.000000, -784.500000,  64.500000,  -1.159709,  89.751752, 177.050208,   0.011100,   0.025328,   0.705098,   0.708529, 
26296,   0.037004,   9.980731,   0.073577,  -0.086990,  37.400792,   0.308102,  -0.667280,  -1.171137,   0.543346, -501.000000, -784.500000,  69.000000,  -1.150683,  89.766888, 177.416976,   0.008884,   0.023016,   0.705269,   0.708465, 
26297,   0.095253,   9.779787,  -0.251240,   0.376184,  38.396700,   0.243869,  -0.679744,  -1.179822,   0.557677, -507.000000, -786.000000,  73.500000,  -1.137643,  89.788704, 177.793312,   0.006634,   0.020620,   0.705472,   0.708349, 
26298,   0.125460,   9.845835,  -0.030904,   0.361936,  39.383604,   0.330869,  -0.687892,  -1.173120,   0.564341, -511.500000, -783.000000,  75.000000,  -1.128506,  89.792680, 178.180240,   0.004298,   0.018182,   0.705566,   0.708345, 
26299,   0.047687,   9.685871,  -0.204970,   0.314414,  39.883808,   0.323761,  -0.678685,  -1.169322,   0.549757, -507.000000, -783.000000,  70.500000,  -1.115249,  89.816920, 178.573952,   0.001943,   0.015676,   0.705786,   0.708217, 
26300,   0.201517,   9.775926,  -0.101205,   0.845881,  40.565744,   0.357204,  -0.684326,  -1.172217,   0.536215, -510.000000, -784.500000,  66.000000,  -1.111957,  89.819944, 178.974656,  -0.000513,   0.013188,   0.705846,   0.708191, 
26301,   0.035542,   9.869410,  -0.012935,   0.364759,  41.117256,   0.330758,  -0.691010,  -1.182805,   0.540246, -513.000000, -787.500000,  67.500000,  -1.101361,  89.831528, 179.380880,  -0.002960,   0.010620,   0.705958,   0.708111, 
26302,   0.292916,   9.862108,   0.067731,   0.384917,  41.714368,   0.363830,  -0.685402,  -1.185523,   0.534482, -510.000000, -789.000000,  66.000000,  -1.112702,  89.831024, 179.793120,  -0.005577,   0.008150,   0.705995,   0.708105, 
26303,   0.099721,   9.793473,  -0.099591,   0.192101,  42.167860,   0.239219,  -0.683129,  -1.166516,   0.504452, -510.000000, -784.500000,  55.500000,  -1.104611,  89.850368, -179.790464,   0.008101,  -0.005533,  -0.706140,  -0.707962, 
26304,   0.247788,   9.792892,  -0.109701,   0.598077,  42.434592,   0.396380,  -0.694517,  -1.161894,   0.520516, -516.000000, -781.500000,  60.000000,  -1.111172,  89.846776, -179.369680,   0.010741,  -0.002981,  -0.706127,  -0.707942, 
26305,   0.044184,   9.771457,   0.102996,   0.239656,  42.657680,   0.370286,  -0.698287,  -1.169224,   0.533875, -517.500000, -783.000000,  64.500000,  -1.097646,  89.852920, -178.946912,   0.013270,  -0.000291,  -0.706174,  -0.707865, 
26306,   0.195260,   9.640223,  -0.201082,   0.725877,  43.199264,   0.385265,  -0.698303,  -1.172031,   0.524222, -517.500000, -784.500000,  61.500000,  -1.101493,  89.859976, -178.520144,   0.015929,   0.002315,  -0.706222,  -0.707774, 
26307,   0.140929,   9.814553,   0.231812,   0.508474,  43.805028,   0.454553,  -0.707168,  -1.174200,   0.529732, -522.000000, -784.500000,  63.000000,  -1.086673,  89.846688, -178.086656,   0.018516,   0.005076,  -0.706115,  -0.707783, 
26308,   0.119544,   9.798720,  -0.104161,   0.410628,  44.311716,   0.340636,  -0.709007,  -1.164151,   0.522136, -523.500000, -781.500000,  60.000000,  -1.091405,  89.860296, -177.648720,   0.021249,   0.007748,  -0.706176,  -0.707623, 
26309,   0.226672,   9.804457,   0.073100,   0.549588,  44.499068,   0.510851,  -0.708136,  -1.157272,   0.509101, -523.500000, -780.000000,  55.500000,  -1.088433,  89.846568, -177.206656,   0.023962,   0.010487,  -0.706066,  -0.707632, 
26310,   0.026542,   9.831478,  -0.039914,   0.267013,  44.543088,   0.290947,  -0.719744,  -1.161885,   0.500745, -529.500000, -781.500000,  52.500000,  -1.085063,  89.859544, -176.763776,   0.026674,   0.013240,  -0.706090,  -0.707444, 
26311,   0.211359,   9.823500,   0.034048,   0.723839,  44.738444,   0.429994,  -0.721942,  -1.156272,   0.492571, -531.000000, -780.000000,  49.500000,  -1.087467,  89.849800, -176.319456,   0.029433,   0.015960,  -0.705972,  -0.707393, 
26312,   0.014854,   9.806044,  -0.001067,   0.432082,  44.747648,   0.357320,  -0.727737,  -1.157175,   0.493219, -534.000000, -780.000000,  49.500000,  -1.078442,  89.851440, -175.874112,   0.032127,   0.018760,  -0.705922,  -0.707275, 
26313,   0.166766,   9.825346,   0.092143,   0.424098,  44.828308,   0.471803,  -0.733346,  -1.154457,   0.498982, -537.000000, -778.500000,  51.000000,  -1.079122,  89.843336, -175.427520,   0.034888,   0.021504,  -0.705787,  -0.707187, 
26314,   0.091513,   9.872341,   0.088663,   0.369710,  45.379124,   0.306932,  -0.724856,  -1.159530,   0.483243, -532.500000, -781.500000,  46.500000,  -1.074740,  89.835608, -174.977952,   0.037636,   0.024297,  -0.705645,  -0.707091, 
26315,   0.154983,   9.758007,   0.103222,   0.501455,  45.690596,   0.392243,  -0.718906,  -1.160619,   0.468404, -529.500000, -783.000000,  42.000000,  -1.075581,  89.823208, -174.524416,   0.040443,   0.027081,  -0.705475,  -0.707020, 
26316,   0.032078,   9.805063,   0.170207,   0.396146,  46.313012,   0.289003,  -0.723985,  -1.152651,   0.470208, -532.500000, -780.000000,  42.000000,  -1.059882,  89.811416, -174.066304,   0.043176,   0.029993,  -0.705279,  -0.706926, 
26317,   0.119512,   9.748332,  -0.019212,   0.710219,  46.828740,   0.388655,  -0.724873,  -1.162337,   0.473590, -532.500000, -783.000000,  43.500000,  -1.053447,  89.804256, -173.602624,   0.045998,   0.032883,  -0.705102,  -0.706788, 
26318,   0.151198,   9.845798,   0.250205,   0.569413,  47.363108,   0.448816,  -0.732679,  -1.154005,   0.471179, -537.000000, -780.000000,  42.000000,  -1.042933,  89.783904, -173.133392,   0.048834,   0.035827,  -0.704839,  -0.706730, 
26319,   0.097004,   9.800171,   0.118163,   0.418554,  47.718684,   0.331630,  -0.740843,  -1.150110,   0.468191, -541.500000, -778.500000,  40.500000,  -1.032952,  89.780304, -172.659888,   0.051694,   0.038799,  -0.704656,  -0.706545, 
26320,   0.209665,   9.788508,   0.106011,   0.672840,  48.270228,   0.448666,  -0.735935,  -1.158892,   0.470926, -538.500000, -781.500000,  42.000000,  -1.030274,  89.764472, -172.182064,   0.054628,   0.041745,  -0.704385,  -0.706418, 
26321,   0.085702,   9.851885,   0.296934,   0.316186,  48.662020,   0.364668,  -0.738850,  -1.162151,   0.461597, -540.000000, -783.000000,  39.000000,  -1.017840,  89.747944, -171.699552,   0.057533,   0.044780,  -0.704104,  -0.706297, 
26322,   0.151685,   9.777604,   0.058359,   0.525079,  48.946244,   0.372019,  -0.749758,  -1.160699,   0.444744, -546.000000, -783.000000,  33.000000,  -1.020882,  89.741352, -171.212944,   0.060553,   0.047747,  -0.703862,  -0.706080, 
26323,   0.076685,   9.794970,   0.099123,   0.647461,  49.168472,   0.394722,  -0.755382,  -1.160787,   0.440854, -549.000000, -783.000000,  31.500000,  -1.009366,  89.725576, -170.723760,   0.063503,   0.050813,  -0.703547,  -0.705915, 
26324,   0.102269,   9.689241,   0.016619,   0.759648,  49.230668,   0.431875,  -0.765152,  -1.175448,   0.440094, -553.500000, -787.500000,  31.500000,  -1.008521,  89.720224, -170.233792,   0.066518,   0.053824,  -0.703299,  -0.705680, 
26325,   0.137288,   9.992875,   0.315710,   0.666869,  49.390700,   0.372775,  -0.764623,  -1.170198,   0.436134, -553.500000, -786.000000,  30.000000,  -1.004155,  89.688032, -169.741840,   0.069536,   0.056849,  -0.702853,  -0.705579, 
26326,   0.092649,   9.752104,   0.234951,   0.210955,  49.320864,   0.427432,  -0.752330,  -1.162328,   0.426340, -547.500000, -784.500000,  27.000000,  -1.002509,  89.679024, -168.773200,   0.075493,   0.062794,  -0.702300,  -0.705032, 
26327,   0.161505,   9.803941,   0.173532,   0.699363,  49.213008,   0.430897,  -0.748919,  -1.159433,   0.412403, -546.000000, -784.500000,  22.500000,  -0.998777,  89.659504, -167.346096,   0.084257,   0.071543,  -0.701342,  -0.704160, 
26328,   0.125002,   9.817085,   0.176810,   0.621526,  49.159892,   0.446501,  -0.762692,  -1.152819,   0.415179, -553.500000, -781.500000,  22.500000,  -0.996125,  89.642896, -165.922528,   0.092993,   0.080253,  -0.700295,  -0.703162, 
26329,   0.073862,   9.862608,   0.276197,   0.414368,  49.035320,   0.346273,  -0.776669,  -1.152633,   0.403186, -561.000000, -781.500000,  18.000000,  -0.986543,  89.619616, -164.495328,   0.101703,   0.089007,  -0.699089,  -0.702098, 
26330,   0.025035,   9.762962,   0.193077,   0.304359,  48.914112,   0.368050,  -0.774146,  -1.159424,   0.392632, -559.500000, -784.500000,  15.000000,  -0.971067,  89.606144, -163.087808,   0.110237,   0.097668,  -0.697847,  -0.700893, 
26331,   0.070976,   9.742970,   0.109668,   0.797642,  48.714140,   0.336087,  -0.768709,  -1.162956,   0.391407, -556.500000, -786.000000,  15.000000,  -0.958698,  89.584736, -161.712432,   0.118586,   0.106091,  -0.696483,  -0.699662, 
26332,   0.119393,   9.794354,   0.335966,   0.577003,  48.708248,   0.437020,  -0.774676,  -1.164674,   0.396592, -559.500000, -786.000000,  16.500000,  -0.948506,  89.559096, -160.355696,   0.126825,   0.114363,  -0.695010,  -0.698374, 
26333,   0.072446,   9.848960,   0.309817,   0.554710,  48.474888,   0.407486,  -0.777403,  -1.164311,   0.392379, -561.000000, -786.000000,  15.000000,  -0.943199,  89.533568, -159.018848,   0.134958,   0.122465,  -0.693465,  -0.697005, 
26334,   0.121461,   9.879455,   0.329219,   0.526753,  48.265796,   0.482757,  -0.776018,  -1.154988,   0.365731, -561.000000, -784.500000,   6.000000,  -0.939227,  89.506744, -157.694208,   0.143012,   0.130463,  -0.691833,  -0.695563, 
26335,   0.024861,   9.817210,   0.327145,   0.381304,  48.306248,   0.402580,  -0.786706,  -1.144302,   0.373297, -567.000000, -780.000000,   7.500000,  -0.926368,  89.486688, -156.378144,   0.150937,   0.138451,  -0.690149,  -0.694009, 
26336,   0.078246,   9.772154,   0.217611,   0.836937,  47.988440,   0.504454,  -0.787577,  -1.151181,   0.386332, -567.000000, -781.500000,  12.000000,  -0.917186,  89.458744, -155.095520,   0.158676,   0.146183,  -0.688373,  -0.692454, 
26337,   0.037463,   9.818934,   0.325470,   0.428998,  47.914604,   0.378741,  -0.793577,  -1.158512,   0.372212, -570.000000, -784.500000,   7.500000,  -0.906944,  89.438256, -153.819248,   0.166344,   0.153873,  -0.686563,  -0.690780, 
26338,   0.114779,   9.838476,   0.346978,   0.645980,  47.189844,   0.426274,  -0.792910,  -1.158060,   0.344410, -570.000000, -786.000000,  -1.500000,  -0.905973,  89.403200, -152.562416,   0.173954,   0.161346,  -0.684621,  -0.689124, 
26339,   0.066596,   9.788647,   0.342781,   0.268775,  46.473872,   0.377487,  -0.794920,  -1.148826,   0.341352, -571.500000, -783.000000,  -3.000000,  -0.901613,  89.382344, -151.327056,   0.181377,   0.168710,  -0.682710,  -0.687340, 
26340,   0.129096,   9.958714,   0.625724,   0.769813,  45.046752,   0.435978,  -0.786380,  -1.145479,   0.354569, -567.000000, -781.500000,   1.500000,  -0.910653,  89.320304, -150.142016,   0.188625,   0.175606,  -0.680575,  -0.685784, 
26341,   0.144314,   9.794740,   0.393529,  -0.479971,  43.690972,   0.319796,  -0.785851,  -1.140229,   0.350609, -567.000000, -780.000000,   0.000000,  -0.908274,  89.314408, -148.989536,   0.195510,   0.182448,  -0.678742,  -0.683898, 
26342,   0.261076,   9.656227,   0.298632,   1.181497,  41.898504,   0.392316,  -0.793877,  -1.141132,   0.323779, -571.500000, -781.500000,  -9.000000,  -0.917932,  89.299072, -147.875328,   0.202231,   0.188953,  -0.676857,  -0.682035, 
26343,   0.089876,   9.735446,   0.301017,   0.338590,  40.504744,   0.376640,  -0.797150,  -1.148826,   0.313873, -573.000000, -784.500000, -12.000000,  -0.912601,  89.280584, -146.759760,   0.208860,   0.195529,  -0.674861,  -0.680147, 
26344,   0.081259,  10.031054,   0.808499,   0.666992,  39.258336,   0.324269,  -0.797680,  -1.154076,   0.317833, -573.000000, -786.000000, -10.500000,  -0.915678,  89.201448, -145.688032,   0.215369,   0.201665,  -0.672540,  -0.678623, 
26345,   0.002063,   9.744176,   0.246663,   0.190878,  38.574196,   0.271090,  -0.808571,  -1.149818,   0.310632, -579.000000, -784.500000, -13.500000,  -0.900667,  89.190008, -144.619664,   0.221622,   0.207995,  -0.670540,  -0.676686, 
26346,   0.004966,   9.881938,   0.658845,   0.122260,  38.199848,   0.291726,  -0.822344,  -1.143204,   0.313407, -586.500000, -781.500000, -13.500000,  -0.890374,  89.137216, -143.568928,   0.227857,   0.214092,  -0.668277,  -0.674956, 
26347,  -0.021507,   9.692554,   0.094190,   0.528108,  37.951040,   0.333357,  -0.837176,  -1.147090,   0.324102, -594.000000, -781.500000, -10.500000,  -0.870873,  89.125752, -142.519568,   0.233935,   0.220292,  -0.666176,  -0.672940, 
26348,   0.006271,   9.864738,   0.583826,   0.338823,  37.717104,   0.308743,  -0.825601,  -1.148091,   0.313153, -588.000000, -783.000000, -13.500000,  -0.855663,  89.083112, -141.498960,   0.239915,   0.226217,  -0.663907,  -0.671108, 
26349,  -0.017445,   9.651794,   0.076488,   0.883825,  37.452124,   0.345818,  -0.807683,  -1.140132,   0.307249, -579.000000, -781.500000, -15.000000,  -0.838621,  89.071184, -140.504352,   0.245661,   0.232048,  -0.661822,  -0.669114, 
26350,   0.035022,   9.964200,   0.704765,  -0.050961,  37.662496,   0.280270,  -0.810068,  -1.138140,   0.293961, -580.500000, -781.500000, -19.500000,  -0.826324,  89.038216, -139.534304,   0.251312,   0.237640,  -0.659612,  -0.667222, 
26351,   0.054704,   9.795221,   0.329123,   0.628376,  37.666036,   0.311992,  -0.820789,  -1.133067,   0.282221, -586.500000, -780.000000, -24.000000,  -0.819815,  89.008808, -138.565056,   0.256971,   0.243181,  -0.657390,  -0.665252, 
26352,   0.019930,   9.803732,   0.312149,  -0.030944,  38.136692,   0.242500,  -0.821131,  -1.134696,   0.291296, -586.500000, -780.000000, -21.000000,  -0.806367,  89.001880, -137.598528,   0.262514,   0.248782,  -0.655252,  -0.663137, 
26353,   0.085054,   9.693000,   0.257280,   0.763170,  38.270600,   0.306813,  -0.812795,  -1.137777,   0.289747, -582.000000, -781.500000, -21.000000,  -0.801437,  88.967240, -136.665440,   0.267953,   0.254056,  -0.652993,  -0.661185, 
26354,   0.063337,   9.721902,   0.156613,   0.567955,  38.499280,   0.286484,  -0.824404,  -1.142389,   0.281391, -588.000000, -783.000000, -24.000000,  -0.788385,  88.965968, -135.732080,   0.273257,   0.259437,  -0.650859,  -0.659014, 
26355,   0.143898,   9.893288,   0.467954,   0.557200,  38.289040,   0.339683,  -0.838364,  -1.139397,   0.279051, -595.500000, -781.500000, -25.500000,  -0.788296,  88.930520, -134.811408,   0.278627,   0.264575,  -0.648558,  -0.657005, 
26356,   0.157656,   9.901394,   0.209569,   0.020243,  37.809308,   0.220809,  -0.840374,  -1.130163,   0.275992, -597.000000, -778.500000, -27.000000,  -0.786202,  88.938984, -133.890000,   0.283868,   0.269813,  -0.646450,  -0.654698, 
26357,   0.205428,   9.810405,   0.415241,   0.195357,  37.293312,   0.291897,  -0.839503,  -1.123284,   0.262957, -597.000000, -777.000000, -31.500000,  -0.791241,  88.911520, -132.994488,   0.289068,   0.274757,  -0.644175,  -0.652599, 
26358,   0.218708,   9.642009,   0.057585,   0.671043,  36.758244,   0.244116,  -0.833723,  -1.125187,   0.252657, -594.000000, -778.500000, -34.500000,  -0.799745,  88.905264, -132.109560,   0.294166,   0.279663,  -0.642029,  -0.650370, 
26359,   0.201416,   9.868873,   0.442398,   0.288716,  36.314628,   0.301646,  -0.834440,  -1.134058,   0.251501, -594.000000, -781.500000, -34.500000,  -0.804658,  88.885080, -131.246296,   0.299131,   0.284408,  -0.639794,  -0.648228, 
26360,   0.108801,   9.784121,   0.142437,   0.385258,  35.646960,   0.247333,  -0.832088,  -1.141664,   0.245485, -592.500000, -784.500000, -36.000000,  -0.806088,  88.885304, -130.398392,   0.303927,   0.289127,  -0.637678,  -0.645993, 
26361,   0.155969,   9.827235,   0.370621,   0.218104,  35.256340,   0.325581,  -0.829003,  -1.137591,   0.250276, -591.000000, -783.000000, -34.500000,  -0.802638,  88.872392, -129.576400,   0.308569,   0.293680,  -0.635510,  -0.643881, 
26362,   0.098757,   9.772429,   0.095731,   0.369731,  34.944220,   0.243379,  -0.846032,  -1.135864,   0.252797, -600.000000, -781.500000, -34.500000,  -0.799048,  88.875488, -128.768432,   0.313071,   0.298180,  -0.633426,  -0.641676, 
26363,   0.141632,   9.747120,   0.265411,   0.365627,  34.535216,   0.279582,  -0.849493,  -1.147179,   0.237777, -601.500000, -786.000000, -39.000000,  -0.795620,  88.865624, -127.968472,   0.317556,   0.302592,  -0.631276,  -0.639550, 
26364,   0.036163,   9.826818,   0.221007,   0.544128,  34.347948,   0.269518,  -0.831575,  -1.139220,   0.231872, -592.500000, -784.500000, -40.500000,  -0.785934,  88.854968, -127.181920,   0.321908,   0.306937,  -0.629087,  -0.637429, 
26365,   0.075274,   9.883922,   0.252616,   0.301296,  34.108372,   0.279993,  -0.825250,  -1.133067,   0.227265, -589.500000, -783.000000, -42.000000,  -0.777625,  88.850496, -126.417424,   0.326124,   0.311164,  -0.626985,  -0.635322, 
26366,   0.109597,   9.897158,   0.367963,   0.244837,  33.610388,   0.287929,  -0.848434,  -1.136679,   0.229856, -601.500000, -783.000000, -42.000000,  -0.769604,  88.835208, -125.666608,   0.330275,   0.315263,  -0.624819,  -0.633272, 
26367,   0.013620,   9.873334,   0.360149,  -0.004919,  33.521542,   0.196570,  -0.853700,  -1.132332,   0.226544, -604.500000, -781.500000, -43.500000,  -0.755425,  88.827424, -124.918880,   0.334348,   0.319391,  -0.622670,  -0.631190, 
26368,   0.151783,   9.676897,   0.191078,   0.439211,  33.289592,   0.266965,  -0.847220,  -1.128171,   0.207746, -601.500000, -781.500000, -49.500000,  -0.751136,  88.816392, -124.178536,   0.338425,   0.323397,  -0.620518,  -0.629086, 
26369,   0.108632,   9.701837,   0.220871,   0.441675,  32.657630,   0.194844,  -0.849059,  -1.118122,   0.200150, -603.000000, -778.500000, -52.500000,  -0.746043,  88.810928, -123.441440,   0.342454,   0.327395,  -0.618382,  -0.626943, 
26370,   0.105279,   9.913889,   0.278827,   0.424427,  31.795196,   0.275064,  -0.840007,  -1.112333,   0.199756, -598.500000, -777.000000, -52.500000,  -0.743517,  88.799416, -122.728016,   0.346370,   0.331217,  -0.616260,  -0.624867, 
26371,   0.027787,   9.914124,   0.320741,  -0.037260,  31.119840,   0.205761,  -0.837842,  -1.123558,   0.188624, -597.000000, -781.500000, -55.500000,  -0.734212,  88.802400, -122.028264,   0.350121,   0.335034,  -0.614216,  -0.622753, 
26372,   0.058612,   9.813282,   0.142083,   0.320357,  30.816742,   0.239127,  -0.843655,  -1.127268,   0.179620, -600.000000, -783.000000, -58.500000,  -0.724164,  88.798704, -121.336104,   0.353833,   0.338781,  -0.612129,  -0.620676, 
26373,   0.047427,   9.797238,   0.213988,   0.059034,  30.434598,   0.194647,  -0.854529,  -1.120203,   0.182071, -606.000000, -780.000000, -58.500000,  -0.714021,  88.800392, -120.649488,   0.357489,   0.342504,  -0.610068,  -0.618568, 
26374,   0.097395,   9.735809,   0.089794,   0.579601,  30.113426,   0.246893,  -0.850744,  -1.110066,   0.178364, -604.500000, -777.000000, -60.000000,  -0.709967,  88.797696, -119.980160,   0.361081,   0.346074,  -0.608028,  -0.616494, 
26375,   0.114315,   9.790380,   0.259335,   0.260800,  30.007472,   0.258905,  -0.851102,  -1.114501,   0.177787, -604.500000, -778.500000, -60.000000,  -0.704009,  88.796480, -119.324264,   0.364579,   0.349579,  -0.606016,  -0.614446, 
26376,   0.139726,   9.916228,   0.215938,   0.241607,  29.784576,   0.150298,  -0.865592,  -1.116759,   0.179407, -612.000000, -778.500000, -60.000000,  -0.704220,  88.794112, -118.681648,   0.368024,   0.352960,  -0.604029,  -0.612399, 
26377,   0.165649,   9.867584,   0.260360,  -0.030388,  29.207228,   0.197964,  -0.862507,  -1.112687,   0.184198, -610.500000, -777.000000, -58.500000,  -0.703603,  88.796368, -118.055104,   0.371362,   0.356273,  -0.602109,  -0.610376, 
26378,   0.184962,   9.755867,   0.234461,   0.401255,  28.583998,   0.287379,  -0.853283,  -1.106082,   0.179266, -606.000000, -775.500000, -60.000000,  -0.711319,  88.785688, -117.458384,   0.374603,   0.359322,  -0.600205,  -0.608456, 
26379,   0.146464,   9.794878,   0.313282,   0.241060,  27.987542,   0.127067,  -0.856727,  -1.114590,   0.173897, -607.500000, -778.500000, -61.500000,  -0.712430,  88.772976, -116.875824,   0.377742,   0.362325,  -0.598314,  -0.606614, 
26380,   0.091264,   9.810994,   0.347112,   0.459472,  27.497836,   0.138179,  -0.869224,  -1.128888,   0.168923, -613.500000, -783.000000, -63.000000,  -0.710749,  88.745400, -116.304848,   0.380837,   0.365217,  -0.596346,  -0.604869, 
26381,   0.053894,   9.880043,   0.477306,   0.086389,  27.116344,   0.170806,  -0.862915,  -1.125541,   0.154663, -610.500000, -783.000000, -67.500000,  -0.703390,  88.725880, -115.732120,   0.383880,   0.368167,  -0.594387,  -0.603084, 
26382,   0.060756,   9.798759,   0.319728,   0.169804,  26.857896,   0.114915,  -0.859487,  -1.119840,   0.150379, -609.000000, -781.500000, -69.000000,  -0.697414,  88.706624, -115.166544,   0.386887,   0.371066,  -0.592447,  -0.601307, 
26383,   0.104380,   9.804332,   0.369959,   0.358539,  26.559262,   0.172609,  -0.864379,  -1.108251,   0.157297, -612.000000, -777.000000, -67.500000,  -0.692470,  88.678840, -114.621528,   0.389804,   0.373807,  -0.590507,  -0.599614, 
26384,   0.005199,   9.771682,   0.384214,   0.044796,  26.387106,   0.192203,  -0.855856,  -1.107711,   0.160862, -607.500000, -777.000000, -66.000000,  -0.677384,  88.662256, -114.093152,   0.392547,   0.376553,  -0.588647,  -0.597952, 
26385,   0.077532,   9.801207,   0.414871,   0.337691,  26.006144,   0.239912,  -0.858583,  -1.107348,   0.156649, -609.000000, -777.000000, -67.500000,  -0.670946,  88.630296, -113.587424,   0.395254,   0.379069,  -0.586789,  -0.596398, 
26386,  -0.062747,   9.839924,   0.379623,   0.099455,  25.826290,   0.139327,  -0.864395,  -1.111057,   0.147645, -612.000000, -778.500000, -70.500000,  -0.650391,  88.617248, -113.075784,   0.397850,   0.381746,  -0.584950,  -0.594761, 
26387,  -0.027834,   9.766563,   0.349013,   0.386496,  25.523256,   0.154511,  -0.861342,  -1.112598,   0.133130, -610.500000, -780.000000, -75.000000,  -0.630584,  88.593696, -112.565264,   0.400481,   0.384375,  -0.583063,  -0.593179, 
26388,  -0.080141,   9.794586,   0.329298,   0.270259,  25.727958,   0.122056,  -0.864070,  -1.112235,   0.128917, -612.000000, -780.000000, -76.500000,  -0.605445,  88.582496, -112.045704,   0.403073,   0.387101,  -0.581162,  -0.591493, 
26389,  -0.045072,   9.851686,   0.371500,   0.116114,  25.974732,   0.182761,  -0.858632,  -1.115768,   0.127691, -609.000000, -781.500000, -76.500000,  -0.587810,  88.570296, -111.538040,   0.405642,   0.389720,  -0.579317,  -0.589823, 
26390,   0.051997,   9.824838,   0.297845,   0.127393,  26.048680,   0.152289,  -0.858274,  -1.111332,   0.128269, -609.000000, -780.000000, -76.500000,  -0.576490,  88.563208, -111.040240,   0.408173,   0.392271,  -0.577550,  -0.588139, 
26391,   0.092003,   9.836528,   0.314807,  -0.012620,  26.069642,   0.128878,  -0.860830,  -1.110154,   0.119518, -610.500000, -780.000000, -79.500000,  -0.575328,  88.558544, -110.539352,   0.410744,   0.394775,  -0.575793,  -0.586367, 
26392,   0.231817,   9.781333,   0.102631,   0.272919,  26.003920,   0.161800,  -0.863369,  -1.106170,   0.120419, -612.000000, -778.500000, -79.500000,  -0.582183,  88.563176, -110.048032,   0.413274,   0.397223,  -0.574145,  -0.584556, 
26393,   0.263069,   9.784725,   0.116702,   0.174554,  25.705654,   0.163153,  -0.851402,  -1.097123,   0.129353, -606.000000, -775.500000, -76.500000,  -0.592169,  88.579600, -109.583176,   0.415638,   0.399561,  -0.572654,  -0.582763, 
26394,   0.236115,   9.814970,   0.118620,   0.370395,  25.425034,   0.074262,  -0.857744,  -1.106082,   0.124309, -609.000000, -778.500000, -78.000000,  -0.601525,  88.592064, -109.121808,   0.417979,   0.401857,  -0.571130,  -0.580982, 
26395,   0.152311,   9.891590,   0.232408,   0.194298,  25.389408,   0.180959,  -0.868652,  -1.104630,   0.107455, -615.000000, -778.500000, -84.000000,  -0.606522,  88.603264, -108.643840,   0.420385,   0.404252,  -0.569526,  -0.579162, 
26396,   0.116844,   9.816037,   0.122453,   0.159666,  25.835008,   0.131442,  -0.867935,  -1.095759,   0.108610, -615.000000, -775.500000, -84.000000,  -0.603595,  88.621608, -108.171928,   0.422690,   0.406680,  -0.567942,  -0.577350, 
26397,  -0.003226,   9.786650,   0.227505,  -0.074380,  26.781728,   0.187265,  -0.874978,  -1.110783,   0.112063, -618.000000, -780.000000, -82.500000,  -0.589617,  88.634368, -107.705640,   0.424916,   0.409100,  -0.566288,  -0.575605, 
26398,   0.043035,   9.725490,   0.037448,   0.486842,  27.666982,   0.176297,  -0.869540,  -1.114316,   0.110837, -615.000000, -781.500000, -82.500000,  -0.580689,  88.645008, -107.242368,   0.427159,   0.411472,  -0.564652,  -0.573865, 
26399,   0.043611,   9.822311,   0.157059,   0.294185,  28.544140,   0.176221,  -0.868652,  -1.104630,   0.107455, -615.000000, -778.500000, -84.000000,  -0.569365,  88.658128, -106.774104,   0.429402,   0.413886,  -0.562994,  -0.572096, 
26400,   0.123483,   9.836668,   0.136090,   0.242671,  29.028598,   0.180393,  -0.869962,  -1.089332,   0.095899, -616.500000, -774.000000, -88.500000,  -0.567891,  88.675720, -106.291016,   0.431733,   0.416324,  -0.561319,  -0.570192, 
26401,   0.120343,   9.837208,   0.169707,   0.182266,  29.580334,   0.193398,  -0.870679,  -1.098203,   0.094744, -616.500000, -777.000000, -88.500000,  -0.564102,  88.692760, -105.811064,   0.434038,   0.418756,  -0.559643,  -0.568312, 
26402,   0.087495,   9.804959,   0.105702,   0.121844,  29.847606,   0.245831,  -0.878267,  -1.121283,   0.092504, -619.500000, -784.500000, -88.500000,  -0.563061,  88.710976, -105.332480,   0.436339,   0.421167,  -0.557979,  -0.566413, 
26403,   0.182918,   9.788317,   0.055254,   0.379010,  30.180892,   0.206236,  -0.878984,  -1.130154,   0.091349, -619.500000, -787.500000, -88.500000,  -0.567864,  88.721944, -104.862968,   0.438633,   0.423463,  -0.556313,  -0.564542, 
26404,   0.159883,   9.809920,   0.140475,   0.238251,  30.318452,   0.177152,  -0.872300,  -1.119565,   0.087319, -616.500000, -784.500000, -90.000000,  -0.571894,  88.735120, -104.396536,   0.440900,   0.425756,  -0.554668,  -0.562676, 
26405,   0.186667,   9.870598,   0.147666,   0.448226,  30.236168,   0.223452,  -0.877037,  -1.109969,   0.080047, -619.500000, -781.500000, -93.000000,  -0.577430,  88.744808, -103.929856,   0.443181,   0.428025,  -0.553001,  -0.560812, 
26406,   0.141291,   9.790529,   0.120847,   0.083788,  30.336818,   0.219291,  -0.883192,  -1.115307,   0.080117, -622.500000, -783.000000, -93.000000,  -0.579408,  88.766800, -103.465568,   0.445371,   0.430332,  -0.551370,  -0.558891, 
26407,   0.109397,   9.858094,   0.260918,   0.403154,  30.299218,   0.162188,  -0.879047,  -1.100735,   0.076988, -621.000000, -778.500000, -94.500000,  -0.579205,  88.760896, -103.017480,   0.447576,   0.432464,  -0.549656,  -0.557176, 
26408,   0.034916,   9.766912,   0.024432,   0.143663,  30.309908,   0.202067,  -0.884314,  -1.096388,   0.073677, -624.000000, -777.000000, -96.000000,  -0.572013,  88.788776, -102.559776,   0.449662,   0.434805,  -0.548037,  -0.555283, 
26409,   0.066022,   9.822523,   0.240111,   0.271359,  30.203040,   0.236387,  -0.885389,  -1.109694,   0.071944, -624.000000, -781.500000, -96.000000,  -0.564681,  88.783080, -102.121992,   0.451761,   0.436903,  -0.546309,  -0.553610, 
26410,  -0.052949,   9.810999,   0.023807,   0.184612,  30.114268,   0.233854,  -0.882679,  -1.112863,   0.066505, -622.500000, -783.000000, -97.500000,  -0.546634,  88.808400, -101.676248,   0.453730,   0.439213,  -0.544657,  -0.551798, 
26411,   0.062341,   9.907075,   0.222437,   0.330473,  30.095976,   0.200324,  -0.879268,  -1.109969,   0.052568, -621.000000, -783.000000, -102.000000,  -0.539572,  88.804280, -101.232512,   0.455853,   0.441343,  -0.542912,  -0.550093, 
26412,   0.057692,   9.785689,   0.045860,   0.321435,  30.060714,   0.260519,  -0.886561,  -1.099194,   0.036545, -625.500000, -780.000000, -108.000000,  -0.532585,  88.823968, -100.765536,   0.457974,   0.443657,  -0.541167,  -0.548156, 
26413,   0.096017,   9.843053,   0.257464,   0.100799,  30.309780,   0.158078,  -0.884380,  -1.107613,   0.035066, -624.000000, -783.000000, -108.000000,  -0.532722,  88.825760, -100.312080,   0.460133,   0.445802,  -0.539416,  -0.546330, 
26414,   0.201778,   9.814444,   0.158495,   0.427605,  30.371674,   0.232401,  -0.870436,  -1.113413,   0.027754, -616.500000, -786.000000, -109.500000,  -0.542778,  88.829584, -99.861416,   0.462317,   0.447894,  -0.537726,  -0.544468, 
26415,   0.230441,   9.745041,   0.237153,  -0.102453,  30.603994,   0.195878,  -0.872633,  -1.107799,   0.019580, -618.000000, -784.500000, -112.500000,  -0.554212,  88.841176, -99.402360,   0.464495,   0.450030,  -0.536019,  -0.542503, 
26416,   0.326269,   9.766109,   0.138734,   0.404313,  30.620780,   0.227868,  -0.887294,  -1.110872,   0.025738, -625.500000, -784.500000, -111.000000,  -0.576004,  88.835680, -98.965464,   0.466682,   0.451943,  -0.534361,  -0.540666, 
26417,   0.330219,   9.728252,   0.149951,   0.007845,  30.452022,   0.098660,  -0.880610,  -1.100283,   0.021708, -622.500000, -781.500000, -112.500000,  -0.598794,  88.845696, -98.527792,   0.468814,   0.453919,  -0.532777,  -0.538748, 
26418,   0.267800,   9.830475,   0.291785,   0.280166,  30.229842,   0.263069,  -0.869969,  -1.078743,   0.009433, -618.000000, -775.500000, -117.000000,  -0.618000,  88.828720, -98.226472,   0.470383,   0.455156,  -0.531577,  -0.537513, 
26419,   0.225004,   9.696613,  -0.083969,   0.103619,  30.594420,   0.154463,  -0.876653,  -1.089332,   0.013463, -621.000000, -778.500000, -115.500000,  -0.633589,  88.867048, -97.925592,   0.471707,   0.456630,  -0.530618,  -0.536030, 
