Standard output of YIS Manager:
  TID,     AccX,     AccY,     AccZ,    AngVX,    AngVY,    AngVZ,     MagX,     MagY,     MagZ, NormMagX, NormMagY, NormMagZ,    Pitch,     Roll,      Yaw,       q0,       q1,       q2,       q3, 
30144,  -0.035425,  -9.732890,  -0.079082,  -0.075788,   0.196007,  -0.326671,  -0.030305,   1.091920,  -0.819914, -282.000000, -136.500000, -448.500000,  -0.350310, -91.027976, -178.583008,   0.006483,  -0.010963,   0.713316,  -0.700684, 
30145,   0.140476,  -9.820147,  -0.252519,  -0.076850,   0.116782,  -0.162735,  -0.036493,   1.080968,  -0.839149, -285.000000, -141.000000, -454.500000,  -0.359673, -91.033552, -178.574032,   0.006479,  -0.011076,   0.713348,  -0.700649, 
30146,   0.032131,  -9.704086,  -0.144658,  -0.042693,   0.089795,  -0.206353,  -0.039749,   1.076081,  -0.839403, -286.500000, -142.500000, -454.500000,  -0.359725, -91.031384, -178.555232,   0.006594,  -0.011193,   0.713332,  -0.700661, 
30147,   0.134053,  -9.765801,  -0.227153,  -0.109623,   0.258668,  -0.265010,  -0.039048,   1.082146,  -0.847900, -286.500000, -141.000000, -457.500000,  -0.368747, -91.033464, -178.543696,   0.006608,  -0.011320,   0.713342,  -0.700647, 
30148,   0.037912,  -9.745474,  -0.145233,   0.018392,   0.178313,  -0.265028,  -0.027236,   1.093186,  -0.824776, -280.500000, -136.500000, -450.000000,  -0.366871, -91.031368, -178.542288,   0.006629,  -0.011318,   0.713329,  -0.700660, 
30149,   0.059836,  -9.783404,  -0.132702,  -0.102603,   0.080148,  -0.381243,  -0.030338,   1.086307,  -0.839220, -282.000000, -139.500000, -454.500000,  -0.368988, -91.026864, -178.542288,   0.006616,  -0.011330,   0.713301,  -0.700688, 
30150,   0.055279,  -9.741422,  -0.137429,  -0.023104,   0.274806,  -0.550967,  -0.029295,   1.094000,  -0.856792, -282.000000, -138.000000, -460.500000,  -0.368659, -91.022568, -178.539696,   0.006635,  -0.011344,   0.713275,  -0.700714, 
30151,   0.080901,  -9.815293,  -0.190993,  -0.032759,   0.158953,  -0.596647,  -0.029996,   1.087936,  -0.848295, -282.000000, -139.500000, -457.500000,  -0.377490, -91.024272, -178.541344,   0.006569,  -0.011388,   0.713284,  -0.700704, 
30152,   0.055733,  -9.686983,  -0.176929,  -0.101600,   0.150388,  -0.562746,  -0.031055,   1.077436,  -0.840375, -282.000000, -142.500000, -454.500000,  -0.382382, -91.025928, -178.539168,   0.006552,  -0.011432,   0.713294,  -0.700694, 
30153,   0.122157,  -9.735055,  -0.211286,   0.002853,   0.246642,  -0.829676,  -0.017687,   1.098613,  -0.848436, -276.000000, -136.500000, -457.500000,  -0.392327, -91.026376, -178.548944,   0.006430,  -0.011432,   0.713296,  -0.700693, 
30154,   0.092621,  -9.726163,  -0.161927,  -0.126335,   0.183949,  -0.971460,  -0.020414,   1.098976,  -0.852649, -277.500000, -136.500000, -459.000000,  -0.406694, -91.023672, -178.567328,   0.006229,  -0.011405,   0.713281,  -0.700712, 
30155,   0.090680,  -9.803457,  -0.220420,   0.019769,   0.164898,  -1.152951,  -0.027269,   1.087573,  -0.844081, -280.500000, -139.500000, -456.000000,  -0.420040, -91.027648, -178.577296,   0.006084,  -0.011425,   0.713305,  -0.700688, 
30156,   0.101469,  -9.738051,  -0.143574,  -0.007010,   0.085599,  -1.015408,  -0.027799,   1.082323,  -0.840121, -280.500000, -141.000000, -454.500000,  -0.431962, -91.027408, -178.580480,   0.005991,  -0.011478,   0.713302,  -0.700691, 
30157,   0.010198,  -9.799670,  -0.175575,   0.130912,   0.074489,  -1.388312,  -0.025447,   1.074718,  -0.846138, -279.000000, -144.000000, -456.000000,  -0.439509, -91.026920, -178.582816,   0.005930,  -0.011509,   0.713299,  -0.700694, 
30158,   0.093587,  -9.761643,  -0.150731,  -0.150299,   0.279296,  -1.474801,  -0.031210,   1.079428,  -0.826185, -282.000000, -141.000000, -450.000000,  -0.448451, -91.026160, -178.582448,   0.005876,  -0.011566,   0.713293,  -0.700699, 
30159,   0.118476,  -9.712080,  -0.164675,   0.090500,   0.222633,  -2.012737,  -0.036973,   1.084138,  -0.806232, -285.000000, -138.000000, -444.000000,  -0.470946, -91.023576, -178.578368,   0.005761,  -0.011729,   0.713274,  -0.700716, 
30160,   0.118477,  -9.827313,  -0.164164,  -0.028197,   0.291548,  -2.508889,  -0.036835,   1.079339,  -0.830074, -285.000000, -141.000000, -451.500000,  -0.497130, -91.022648, -178.569520,   0.005652,  -0.011944,   0.713265,  -0.700722, 
30161,   0.210920,  -9.710032,  -0.197034,   0.005892,   0.209766,  -2.831975,  -0.036680,   1.077347,  -0.844264, -285.000000, -142.500000, -456.000000,  -0.537737, -91.023824, -178.567488,   0.005412,  -0.012205,   0.713267,  -0.700716, 
30162,   0.169177,  -9.779016,  -0.189130,   0.023392,   0.181223,  -3.189110,  -0.026740,   1.092823,  -0.848041, -280.500000, -138.000000, -457.500000,  -0.580604, -91.025488, -178.573424,   0.005109,  -0.012430,   0.713273,  -0.700708, 
30163,   0.092546,  -9.719119,  -0.136545,   0.119603,   0.276433,  -3.665020,  -0.022782,   1.103774,  -0.856285, -279.000000, -135.000000, -460.500000,  -0.613149, -91.019104, -178.584976,   0.004836,  -0.012557,   0.713232,  -0.700750, 
30164,   0.241255,  -9.805182,  -0.257070,   0.110406,   0.150000,  -4.041595,  -0.032365,   1.092734,  -0.851931, -283.500000, -138.000000, -459.000000,  -0.667493, -91.023800, -178.601232,   0.004398,  -0.012789,   0.713256,  -0.700723, 
30165,   0.160788,  -9.688766,  -0.082901,  -0.050158,   0.252382,  -4.972759,  -0.038673,   1.089388,  -0.837670, -286.500000, -138.000000, -454.500000,  -0.718782, -91.017696, -178.601584,   0.004077,  -0.013100,   0.713213,  -0.700763, 
30166,   0.207576,  -9.786819,  -0.208324,   0.226723,   0.336963,  -5.707957,  -0.035605,   1.090654,  -0.842532, -285.000000, -138.000000, -456.000000,  -0.777253, -91.014352, -178.601504,   0.003714,  -0.013458,   0.713186,  -0.700786, 
30167,   0.251864,  -9.692034,  -0.113307,  -0.081455,   0.162471,  -6.729795,  -0.027115,   1.085581,  -0.858271, -280.500000, -141.000000, -460.500000,  -0.857753, -91.013288, -178.617280,   0.003117,  -0.013852,   0.713172,  -0.700796, 
30168,   0.309094,  -9.728754,  -0.193954,   0.230801,   0.324384,  -8.179772,  -0.031055,   1.077436,  -0.840375, -282.000000, -142.500000, -454.500000,  -0.952816, -91.007520, -178.638992,   0.002393,  -0.014298,   0.713128,  -0.700835, 
30169,   0.384497,  -9.658806,  -0.193082,  -0.012990,   0.286169, -10.362740,  -0.036493,   1.080968,  -0.839149, -285.000000, -141.000000, -454.500000,  -1.072389, -91.010704, -178.658880,   0.001527,  -0.014905,   0.713136,  -0.700819, 
30170,   0.569887,  -9.681416,  -0.160700,   0.308217,   0.407332, -12.824818,  -0.029996,   1.087936,  -0.848295, -282.000000, -139.500000, -457.500000,  -1.234446, -91.005928, -178.691216,   0.000320,  -0.015695,   0.713092,  -0.700854, 
30171,   0.585990,  -9.632835,  -0.192087,   0.020104,   0.246516, -16.590521,  -0.032707,   1.091105,  -0.842856, -283.500000, -138.000000, -456.000000,  -1.437015, -91.008896, -178.734736,  -0.001206,  -0.016662,   0.713091,  -0.700838, 
30172,   0.635492,  -9.607857,  -0.138324,   0.253550,   0.547541, -20.263946,  -0.042631,   1.078436,  -0.829426, -288.000000, -141.000000, -451.500000,  -1.669673, -91.001744, -178.769984,  -0.002868,  -0.017866,   0.713009,  -0.700870, 
30173,   0.711682,  -9.653271,  -0.210050,   0.248467,   0.445315, -24.041928,  -0.044795,   1.089662,  -0.818295, -289.500000, -136.500000, -448.500000,  -1.952908, -90.999936, -178.808784,  -0.004868,  -0.019356,   0.712953,  -0.700866, 
30174,   0.473110,  -9.750135,  -0.175632,   0.263469,   0.406947, -26.915380,  -0.049516,   1.102066,  -0.815914, -292.500000, -132.000000, -448.500000,  -2.232970, -90.998864, -178.833168,  -0.006760,  -0.020916,   0.712900,  -0.700857, 
30175,   0.374750,  -9.759692,  -0.154404,   0.231841,   0.458611, -27.654560,  -0.049345,   1.102880,  -0.820452, -292.500000, -132.000000, -450.000000,  -2.499963, -90.995024, -178.849568,  -0.008521,  -0.022447,   0.712832,  -0.700866, 
30176,   0.458354,  -9.778537,  -0.123826,   0.265288,   0.465500, -27.645368,  -0.052585,   1.100800,  -0.811053, -294.000000, -132.000000, -447.000000,  -2.772879, -90.988168, -178.872464,  -0.010359,  -0.023974,   0.712746,  -0.700892, 
30177,   0.341689,  -9.880643,  -0.289553,   0.139527,   0.518069, -26.888664,  -0.052243,   1.102429,  -0.820128, -294.000000, -132.000000, -450.000000,  -3.020748, -90.997088, -178.890400,  -0.012013,  -0.025377,   0.712745,  -0.700806, 
30178,   0.445484,  -9.728232,  -0.136282,   0.210937,   0.474341, -25.931334,  -0.057697,   1.103155,  -0.828555, -297.000000, -132.000000, -453.000000,  -3.265834, -90.995176, -178.915440,  -0.013690,  -0.026719,   0.712678,  -0.700783, 
30179,   0.558747,  -9.807218,  -0.137327,   0.344101,   0.546723, -25.826076,  -0.066374,   1.104607,  -0.817930, -301.500000, -130.500000, -450.000000,  -3.513760, -90.986280, -178.940352,  -0.015383,  -0.028081,   0.712567,  -0.700803, 
30180,   0.660359,  -9.719529,  -0.200772,   0.177694,   0.553510, -26.121754,  -0.062776,   1.111123,  -0.826751, -300.000000, -129.000000, -453.000000,  -3.774249, -90.985984, -178.972176,  -0.017199,  -0.029474,   0.712508,  -0.700765, 
30181,   0.691831,  -9.742054,  -0.160947,   0.205688,   0.395367, -26.108786,  -0.065894,   1.101437,  -0.850848, -301.500000, -133.500000, -460.500000,  -4.038674, -90.985544, -179.012320,  -0.019089,  -0.030841,   0.712451,  -0.700726, 
30182,   0.500668,  -9.762888,  -0.051500,   0.360845,  -0.079964, -26.409486,  -0.066407,   1.098994,  -0.837235, -301.500000, -133.500000, -456.000000,  -4.271318, -90.970632, -179.039696,  -0.020700,  -0.032096,   0.712306,  -0.700778, 
30183,   0.508586,  -9.788708,  -0.095721,   0.301075,  -0.889474, -26.826798,  -0.072203,   1.098091,  -0.836587, -304.500000, -133.500000, -456.000000,  -4.497473, -90.957088, -179.056752,  -0.022206,  -0.033374,   0.712156,  -0.700811, 
30184,   0.693223,  -9.686093,  -0.139128,   0.301406,  -1.807288, -26.745432,  -0.075818,   1.088768,  -0.837418, -306.000000, -136.500000, -456.000000,  -4.741199, -90.949856, -179.070800,  -0.023806,  -0.034778,   0.712038,  -0.700801, 
30185,   0.548297,  -9.824087,  -0.082335,   0.496397,  -2.739860, -26.756954,  -0.070739,   1.080800,  -0.839221, -303.000000, -139.500000, -456.000000,  -4.968765, -90.939104, -179.075392,  -0.025245,  -0.036142,   0.711901,  -0.700818, 
30186,   0.718732,  -9.799517,  -0.213375,   0.508430,  -3.325193, -26.012964,  -0.069680,   1.091300,  -0.847141, -303.000000, -136.500000, -459.000000,  -5.197983, -90.940304, -179.085696,  -0.026734,  -0.037479,   0.711840,  -0.700760, 
30187,   0.626362,  -9.755094,  -0.067017,   0.620792,  -4.575058, -25.287412,  -0.070038,   1.086865,  -0.847718, -303.000000, -138.000000, -459.000000,  -5.416707, -90.931664, -179.093040,  -0.028135,  -0.038772,   0.711720,  -0.700765, 
30188,   0.755861,  -9.798500,  -0.206016,   0.848507,  -5.114185, -24.300414,  -0.075305,   1.091212,  -0.851031, -306.000000, -136.500000, -460.500000,  -5.622941, -90.928032, -179.091824,  -0.029409,  -0.040041,   0.711632,  -0.700744, 
30189,   0.911629,  -9.743557,  -0.114719,   0.825017,  -6.005675, -23.523576,  -0.073512,   1.113389,  -0.848143, -306.000000, -129.000000, -460.500000,  -5.844757, -90.926272, -179.098784,  -0.030829,  -0.041353,   0.711537,  -0.700689, 
30190,   0.975452,  -9.731474,  -0.183678,   0.873329,  -5.909874, -23.322140,  -0.085618,   1.109140,  -0.833235, -312.000000, -129.000000, -456.000000,  -6.062734, -90.920568, -179.101264,  -0.032196,  -0.042671,   0.711418,  -0.700660, 
30191,   1.275982,  -9.689779,  -0.168623,   0.753324,  -5.530919, -23.492724,  -0.089404,   1.099003,  -0.829528, -313.500000, -132.000000, -454.500000,  -6.317672, -90.922184, -179.113584,  -0.033856,  -0.044151,   0.711333,  -0.700573, 
30192,   1.340702,  -9.656179,  -0.158478,   0.844523,  -4.725034, -24.746098,  -0.085292,   1.107962,  -0.851962, -312.000000, -130.500000, -462.000000,  -6.589248, -90.917032, -179.149376,  -0.035760,  -0.045589,   0.711209,  -0.700515, 
30193,   1.437189,  -9.641549,  -0.186798,   0.765249,  -4.010495, -26.157692,  -0.094174,   1.102987,  -0.856105, -316.500000, -132.000000, -463.500000,  -6.885144, -90.918872, -179.189824,  -0.037846,  -0.047145,   0.711122,  -0.700403, 
30194,   1.332936,  -9.654959,  -0.162666,   0.739853,  -3.562729, -27.137314,  -0.098098,   1.097648,  -0.828556, -318.000000, -132.000000, -454.500000,  -7.171789, -90.916944, -179.227136,  -0.039854,  -0.048665,   0.711004,  -0.700307, 
30195,   1.356112,  -9.708794,  -0.181415,   0.709503,  -3.189985, -27.322494,  -0.106091,   1.102358,  -0.836082, -322.500000, -130.500000, -457.500000,  -7.457113, -90.916456, -179.262272,  -0.041839,  -0.050188,   0.710885,  -0.700192, 
30196,   1.425175,  -9.840674,   0.040911,   0.702381,  -3.011155, -27.145334,  -0.097789,   1.093664,  -0.856936, -318.000000, -135.000000, -463.500000,  -7.731879, -90.910688, -179.314224,  -0.043860,  -0.051546,   0.710747,  -0.700105, 
30197,   1.254431,  -9.649334,  -0.156756,   0.671150,  -2.754859, -27.489240,  -0.095420,   1.088866,  -0.853300, -316.500000, -136.500000, -462.000000,  -7.982572, -90.904320, -179.365136,  -0.045724,  -0.052763,   0.710617,  -0.700030, 
30198,   1.438595,  -9.736933,  -0.164295,   0.894600,  -3.600300, -27.458286,  -0.103568,   1.095568,  -0.846636, -321.000000, -133.500000, -460.500000,  -8.272723, -90.908144, -179.425920,  -0.047898,  -0.054156,   0.710538,  -0.699872, 
30199,   1.214218,  -9.740255,  -0.113445,   0.737891,  -3.785845, -27.280548,  -0.096697,   1.109777,  -0.845551, -318.000000, -129.000000, -460.500000,  -8.511809, -90.900184, -179.479808,  -0.049707,  -0.055285,   0.710403,  -0.699801, 
30200,   1.470263,  -9.623048,  -0.145096,   0.954604,  -4.306971, -26.451936,  -0.107930,   1.112407,  -0.843678, -324.000000, -127.500000, -460.500000,  -8.775819, -90.897296, -179.534064,  -0.051674,  -0.056560,   0.710275,  -0.699674, 
30201,   1.427736,  -9.707438,  -0.113012,   1.036143,  -4.697138, -26.170772,  -0.117512,   1.101367,  -0.839323, -328.500000, -130.500000, -459.000000,  -9.022149, -90.891472, -179.567552,  -0.053403,  -0.057858,   0.710128,  -0.699581, 
30202,   1.591816,  -9.664857,  -0.170776,   0.923053,  -4.747385, -25.607220,  -0.114426,   1.105439,  -0.834532, -327.000000, -129.000000, -457.500000,  -9.272840, -90.890616, -179.613264,  -0.055236,  -0.059105,   0.710017,  -0.699448, 
30203,   1.628712,  -9.580544,  -0.148608,   1.126778,  -4.969722, -25.504492,  -0.116950,   1.112230,  -0.823978, -328.500000, -126.000000, -454.500000,  -9.531114, -90.889192, -179.666816,  -0.057163,  -0.060349,   0.709905,  -0.699311, 
30204,   1.620924,  -9.698104,  -0.151106,   1.178341,  -4.979133, -25.582416,  -0.122387,   1.115762,  -0.822753, -331.500000, -124.500000, -454.500000,  -9.776012, -90.882480, -179.713280,  -0.058962,  -0.061559,   0.709764,  -0.699215, 
30205,   1.812856,  -9.535818,  -0.132450,   1.115211,  -5.354677, -25.990122,  -0.131969,   1.104722,  -0.818398, -336.000000, -127.500000, -453.000000, -10.049001, -90.880184, -179.757824,  -0.060923,  -0.062949,   0.709621,  -0.699062, 
30206,   1.747865,  -9.604068,  -0.151867,   1.324936,  -5.935718, -26.450686,  -0.133199,   1.093408,  -0.805941, -336.000000, -130.500000, -448.500000, -10.313662, -90.876536, -179.793696,  -0.062779,  -0.064342,   0.709464,  -0.698920, 
30207,   1.760151,  -9.630188,  -0.114612,   1.524326,  -6.658016, -26.705004,  -0.132515,   1.096666,  -0.824091, -336.000000, -130.500000, -454.500000, -10.570525, -90.867064, -179.827168,  -0.064568,  -0.065707,   0.709277,  -0.698819, 
30208,   1.804765,  -9.592520,  -0.130779,   1.580782,  -7.031883, -26.728430,  -0.140884,   1.094134,  -0.841846, -340.500000, -132.000000, -460.500000, -10.833341, -90.864208, -179.850208,  -0.066334,  -0.067168,   0.709121,  -0.698679, 
30209,   1.858472,  -9.568658,  -0.050100,   1.817623,  -7.406331, -26.784692,  -0.151946,   1.097578,  -0.844510, -346.500000, -130.500000, -462.000000, -11.097414, -90.853488, -179.863424,  -0.068043,  -0.068703,   0.708912,  -0.698591, 
30210,   1.979023,  -9.593871,  -0.101153,   1.801587,  -8.153330, -26.745922,  -0.163025,   1.098215,  -0.856827, -352.500000, -130.500000, -466.500000, -11.366218, -90.845696, -179.863696,  -0.069704,  -0.070344,   0.708700,  -0.698481, 
30211,   2.034979,  -9.577747,   0.004323,   2.209466,  -9.462021, -26.764678,  -0.155578,   1.085449,  -0.854994, -348.000000, -135.000000, -465.000000, -11.642701, -90.828992, -179.873936,  -0.071465,  -0.071975,   0.708424,  -0.698404, 
30212,   2.122871,  -9.580885,  -0.089449,   2.442163, -11.163047, -27.044724,  -0.155732,   1.087441,  -0.840804, -348.000000, -133.500000, -460.500000, -11.917686, -90.819088, -179.874176,  -0.073160,  -0.073655,   0.708184,  -0.698291, 
30213,   2.105063,  -9.560357,   0.032595,   3.215245, -12.918443, -27.276266,  -0.165874,   1.106183,  -0.827545, -354.000000, -126.000000, -457.500000, -12.198592, -90.797488, -179.859680,  -0.074794,  -0.075470,   0.707858,  -0.698256, 
30214,   2.213433,  -9.519898,  -0.033257,   3.276339, -14.656174, -27.854750,  -0.162071,   1.119127,  -0.821599, -352.500000, -121.500000, -456.000000, -12.480536, -90.784248, -179.843184,  -0.076427,  -0.077299,   0.707581,  -0.698171, 
30215,   2.320364,  -9.424111,   0.021309,   3.871184, -16.280115, -28.555880,  -0.158068,   1.097852,  -0.825135, -349.500000, -129.000000, -456.000000, -12.788271, -90.765416, -179.827200,  -0.078217,  -0.079284,   0.707243,  -0.698094, 
30216,   2.436348,  -9.509608,  -0.015654,   4.331866, -17.666204, -29.776440,  -0.173804,   1.081474,  -0.820710, -357.000000, -133.500000, -454.500000, -13.103774, -90.750576, -179.774352,  -0.079831,  -0.081541,   0.706883,  -0.697999, 
30217,   2.454466,  -9.455965,   0.015795,   4.791877, -19.022726, -30.430784,  -0.188123,   1.080031,  -0.823627, -364.500000, -133.500000, -456.000000, -13.433603, -90.731576, -179.699696,  -0.081398,  -0.084022,   0.706469,  -0.697936, 
30218,   2.540055,  -9.468740,   0.025867,   5.144247, -20.804842, -30.858900,  -0.181985,   1.082563,  -0.833350, -361.500000, -133.500000, -459.000000, -13.764079, -90.713872, -179.627808,  -0.082985,  -0.086489,   0.706061,  -0.697866, 
30219,   2.602180,  -9.449029,   0.095393,   5.951475, -22.568858, -31.020600,  -0.190354,   1.080031,  -0.851106, -366.000000, -135.000000, -465.000000, -14.104988, -90.688296, -179.541536,  -0.084542,  -0.089115,   0.705581,  -0.697846, 
30220,   2.669676,  -9.437940,   0.022723,   6.244254, -24.343270, -31.710326,  -0.201604,   1.079854,  -0.858884, -372.000000, -135.000000, -468.000000, -14.447647, -90.672648, -179.428800,  -0.085954,  -0.091903,   0.705113,  -0.697765, 
30221,   2.770822,  -9.258311,   0.128649,   6.939067, -26.333780, -32.730164,  -0.204844,   1.077773,  -0.849486, -373.500000, -135.000000, -465.000000, -14.815085, -90.644296, -179.315424,  -0.087503,  -0.094856,   0.704543,  -0.697747, 
30222,   2.845285,  -9.458357,   0.132018,   7.712251, -28.254490, -33.982888,  -0.208100,   1.072886,  -0.849739, -375.000000, -136.500000, -465.000000, -15.185530, -90.616904, -179.183424,  -0.088957,  -0.097940,   0.703955,  -0.697741, 
30223,   2.790396,  -9.432086,   0.106840,   8.547502, -29.897208, -34.768732,  -0.216965,   1.070717,  -0.844229, -379.500000, -136.500000, -463.500000, -15.555742, -90.588912, -179.027760,  -0.090264,  -0.101169,   0.703332,  -0.697755, 
30224,   2.817367,  -9.307825,   0.100700,   8.762448, -31.218086, -34.745348,  -0.228524,   1.074524,  -0.823629, -385.500000, -133.500000, -457.500000, -15.918695, -90.565168, -178.849952,  -0.091392,  -0.104482,   0.702694,  -0.697753, 
30225,   2.847340,  -9.380169,   0.028808,   9.589103, -32.275554, -34.930056,  -0.230346,   1.087379,  -0.821572, -387.000000, -129.000000, -457.500000, -16.283806, -90.546480, -178.676240,  -0.092562,  -0.107778,   0.702082,  -0.697720, 
30226,   2.911806,  -9.303200,  -0.049674,   9.421828, -32.501598, -34.946552,  -0.235646,   1.086113,  -0.844189, -390.000000, -130.500000, -465.000000, -16.652407, -90.547112, -178.498256,  -0.093745,  -0.111105,   0.701567,  -0.697571, 
30227,   2.895078,  -9.495765,  -0.197537,   9.766177, -31.815730, -35.389892,  -0.244186,   1.082767,  -0.857407, -394.500000, -132.000000, -469.500000, -16.999642, -90.552184, -178.312528,  -0.094753,  -0.114342,   0.701068,  -0.697408, 
30228,   3.152832,  -9.147657,  -0.043051,   9.513279, -31.016566, -35.205392,  -0.250153,   1.081049,  -0.852221, -397.500000, -132.000000, -468.000000, -17.389002, -90.563144, -178.154416,  -0.096193,  -0.117656,   0.700567,  -0.697141, 
30229,   2.983110,  -9.585184,  -0.288417,   9.775279, -30.046116, -35.506300,  -0.260965,   1.058695,  -0.835410, -402.000000, -138.000000, -462.000000, -17.727128, -90.576576, -177.968672,  -0.097154,  -0.120825,   0.700098,  -0.696931, 
30230,   3.379813,  -9.008161,  -0.132543,   9.123198, -28.883812, -35.813880,  -0.266402,   1.062227,  -0.834184, -405.000000, -136.500000, -462.000000, -18.121166, -90.589168, -177.825056,  -0.098716,  -0.124075,   0.699604,  -0.696652, 
30231,   3.208229,  -9.436497,  -0.337392,   9.793225, -27.597950, -36.881192,  -0.265856,   1.070284,  -0.828492, -405.000000, -133.500000, -460.500000, -18.493290, -90.604432, -177.696672,  -0.100238,  -0.127093,   0.699144,  -0.696351, 
30232,   3.144194,  -9.248077,  -0.257216,   8.840962, -25.906016, -36.576360,  -0.274534,   1.071736,  -0.817867, -409.500000, -132.000000, -457.500000, -18.857624, -90.630696, -177.575424,  -0.101767,  -0.130006,   0.698751,  -0.695976, 
30233,   3.002797,  -9.296794,  -0.338238,   8.658108, -24.057100, -35.568856,  -0.284524,   1.047841,  -0.843048, -414.000000, -141.000000, -465.000000, -19.195504, -90.657144, -177.453216,  -0.103130,  -0.132765,   0.698384,  -0.695630, 
30234,   3.032714,  -9.139491,  -0.217580,   7.797428, -22.093382, -33.673288,  -0.288001,   1.033720,  -0.867721, -415.500000, -147.000000, -472.500000, -19.512940, -90.680824, -177.350032,  -0.104482,  -0.135285,   0.698041,  -0.695305, 
30235,   3.117076,  -9.378115,  -0.391737,   7.341657, -20.164406, -31.623986,  -0.298346,   1.046035,  -0.869230, -421.500000, -142.500000, -474.000000, -19.797832, -90.708096, -177.273344,  -0.105799,  -0.137442,   0.697778,  -0.694956, 
30236,   3.142735,  -9.173812,  -0.079340,   6.764422, -18.583950, -29.746604,  -0.313724,   1.034092,  -0.864228, -429.000000, -145.500000, -472.500000, -20.067852, -90.711424, -177.211696,  -0.107086,  -0.139437,   0.697390,  -0.694742, 
30237,   3.337470,  -9.251708,  -0.208827,   6.565471, -17.390078, -28.693870,  -0.310655,   1.035358,  -0.869089, -427.500000, -145.500000, -474.000000, -20.334756, -90.717096, -177.163088,  -0.108436,  -0.141330,   0.697032,  -0.694503, 
30238,   3.486896,  -9.139027,  -0.045801,   6.385363, -16.552210, -28.445988,  -0.316093,   1.038890,  -0.867864, -430.500000, -144.000000, -474.000000, -20.613264, -90.704896, -177.146176,  -0.110027,  -0.143118,   0.696588,  -0.694333, 
30239,   3.509269,  -9.210032,  -0.114272,   6.401322, -16.478111, -27.861398,  -0.315751,   1.040519,  -0.876939, -430.500000, -144.000000, -477.000000, -20.883874, -90.701800, -177.134528,  -0.111613,  -0.144817,   0.696217,  -0.694110, 
30240,   3.529988,  -9.139224,  -0.032889,   6.642626, -16.611017, -27.453996,  -0.322247,   1.033552,  -0.867793, -433.500000, -145.500000, -474.000000, -21.151314, -90.688360, -177.128736,  -0.113201,  -0.146471,   0.695789,  -0.693944, 
30241,   3.554436,  -9.165309,  -0.111545,   6.870390, -16.744244, -27.504138,  -0.334727,   1.022060,  -0.863114, -439.500000, -148.500000, -472.500000, -21.420820, -90.690312, -177.105776,  -0.114714,  -0.148223,   0.695414,  -0.693683, 
30242,   3.548494,  -9.096154,  -0.072066,   6.906296, -16.967546, -27.472898,  -0.335866,   1.038173,  -0.879208, -441.000000, -144.000000, -478.500000, -21.681184, -90.683904, -177.080496,  -0.116147,  -0.149942,   0.694996,  -0.693485, 
30243,   3.637587,  -9.060500,  -0.090198,   7.276397, -17.404462, -27.702860,  -0.343063,   1.025141,  -0.861565, -444.000000, -147.000000, -472.500000, -21.954980, -90.679688, -177.058544,  -0.117685,  -0.151720,   0.694578,  -0.693258, 
30244,   3.657589,  -9.053663,   0.003267,   7.433372, -17.826446, -28.201796,  -0.341362,   1.019891,  -0.830127, -442.500000, -147.000000, -462.000000, -22.228200, -90.667952, -177.030560,  -0.119173,  -0.153538,   0.694105,  -0.693083, 
30245,   3.707986,  -8.963038,   0.097475,   7.738686, -18.621346, -28.885580,  -0.341533,   1.019077,  -0.825589, -442.500000, -147.000000, -460.500000, -22.518906, -90.654256, -177.008240,  -0.120799,  -0.155429,   0.693604,  -0.692896, 
30246,   3.887199,  -8.946616,   0.126756,   8.053944, -19.441964, -29.956516,  -0.358750,   1.017182,  -0.828183, -451.500000, -147.000000, -462.000000, -22.824628, -90.631832, -176.980208,  -0.122466,  -0.157449,   0.693000,  -0.692732, 
30247,   3.999629,  -9.029170,   0.068325,   8.865409, -20.593222, -31.292806,  -0.360622,   1.021618,  -0.855084, -453.000000, -147.000000, -471.000000, -23.146452, -90.608936, -176.940464,  -0.124159,  -0.159637,   0.692353,  -0.692568, 
30248,   4.173916,  -8.991228,   0.046502,   9.738201, -21.729138, -32.693908,  -0.357569,   1.020077,  -0.869598, -451.500000, -148.500000, -475.500000, -23.486022, -90.586240, -176.902480,  -0.125972,  -0.161921,   0.691684,  -0.692382, 
30249,   4.290344,  -8.964027,  -0.004414,  10.402266, -22.853048, -34.161888,  -0.376562,   0.998812,  -0.865426, -460.500000, -154.500000, -474.000000, -23.844716, -90.562688, -176.846912,  -0.127792,  -0.164426,   0.690955,  -0.692201, 
30250,   4.220256,  -8.984901,  -0.066459,  11.188376, -23.795462, -35.646572,  -0.380210,   0.983876,  -0.885562, -462.000000, -160.500000, -480.000000, -24.211234, -90.549752, -176.758400,  -0.129473,  -0.167159,   0.690207,  -0.691964, 
30251,   4.166401,  -8.865599,   0.086204,  11.472538, -24.506072, -36.868680,  -0.379681,   0.989126,  -0.889522, -462.000000, -159.000000, -481.500000, -24.588496, -90.536424, -176.667104,  -0.131200,  -0.169972,   0.689428,  -0.691719, 
30252,   4.142389,  -8.859368,  -0.034364,  11.983330, -25.061896, -37.482132,  -0.394684,   0.984425,  -0.874290, -469.500000, -159.000000, -477.000000, -24.968050, -90.527264, -176.566720,  -0.132893,  -0.172848,   0.688653,  -0.691461, 
30253,   4.183302,  -8.764533,   0.040956,  12.202124, -25.589448, -37.915540,  -0.404624,   0.968950,  -0.870513, -474.000000, -163.500000, -475.500000, -25.354058, -90.517880, -176.450240,  -0.134527,  -0.175857,   0.687836,  -0.691216, 
30254,   4.283217,  -8.752372,  -0.043274,  12.534540, -25.894222, -38.221896,  -0.407351,   0.969313,  -0.874726, -475.500000, -163.500000, -477.000000, -25.743836, -90.514800, -176.325840,  -0.136142,  -0.178922,   0.687009,  -0.690918, 
30255,   4.280821,  -8.808632,   0.026899,  13.133139, -26.208712, -38.569008,  -0.413676,   0.963160,  -0.870118, -478.500000, -165.000000, -475.500000, -26.131756, -90.502456, -176.203904,  -0.137747,  -0.181971,   0.686127,  -0.690679, 
30256,   4.395042,  -8.771207,  -0.009994,  13.167091, -26.335904, -39.075664,  -0.412601,   0.976466,  -0.868386, -478.500000, -160.500000, -475.500000, -26.522552, -90.500912, -176.085728,  -0.139409,  -0.185000,   0.685307,  -0.690373, 
30257,   4.576466,  -8.728121,  -0.058776,  13.486878, -26.269654, -39.897748,  -0.416233,   0.964337,  -0.878869, -480.000000, -165.000000, -478.500000, -26.933506, -90.497344, -175.985552,  -0.141297,  -0.188038,   0.684451,  -0.690021, 
30258,   4.594152,  -8.619569,  -0.000735,  13.526544, -25.992806, -41.415404,  -0.429259,   0.944789,  -0.879883, -486.000000, -171.000000, -478.500000, -27.355554, -90.492704, -175.878208,  -0.143204,  -0.191181,   0.683540,  -0.689661, 
30259,   4.618297,  -8.685633,  -0.118042,  13.508752, -25.403164, -42.675752,  -0.437969,   0.940628,  -0.888564, -490.500000, -172.500000, -481.500000, -27.785490, -90.499872, -175.758608,  -0.145107,  -0.194427,   0.682660,  -0.689240, 
30260,   4.556752,  -8.588016,  -0.044664,  13.371926, -24.606072, -43.428960,  -0.442643,   0.920806,  -0.881475, -492.000000, -178.500000, -478.500000, -28.214676, -90.501000, -175.641728,  -0.147010,  -0.197654,   0.681730,  -0.688844, 
30261,   4.695725,  -8.608063,  -0.053675,  13.165059, -23.859680, -43.687768,  -0.451321,   0.922258,  -0.870850, -496.500000, -177.000000, -475.500000, -28.650494, -90.507264, -175.527568,  -0.148974,  -0.200889,   0.680794,  -0.688386, 
30262,   4.758365,  -8.553937,  -0.061433,  13.360504, -23.275258, -44.127784,  -0.456212,   0.933847,  -0.863932, -499.500000, -172.500000, -474.000000, -29.096050, -90.503728, -175.436128,  -0.151117,  -0.204058,   0.679818,  -0.687950, 
30263,   4.849223,  -8.475728,  -0.052440,  12.786486, -22.387822, -44.805872,  -0.462896,   0.923258,  -0.859902, -502.500000, -175.500000, -472.500000, -29.545692, -90.510200, -175.352384,  -0.153350,  -0.207190,   0.678904,  -0.687441, 
30264,   4.902408,  -8.567401,  -0.125877,  13.007543, -21.857982, -45.472860,  -0.481188,   0.908057,  -0.864228, -511.500000, -180.000000, -474.000000, -29.996286, -90.516000, -175.261664,  -0.155540,  -0.210359,   0.677935,  -0.686917, 
30265,   4.860400,  -8.454381,  -0.116080,  12.968778, -21.394088, -45.230060,  -0.480659,   0.913307,  -0.868188, -511.500000, -178.500000, -475.500000, -30.437202, -90.521376, -175.169664,  -0.157664,  -0.213478,   0.676975,  -0.686415, 
30266,   4.872816,  -8.529977,  -0.166793,  12.926964, -21.131612, -44.364268,  -0.483199,   0.917291,  -0.867286, -513.000000, -177.000000, -475.500000, -30.855744, -90.532256, -175.086544,  -0.159717,  -0.216404,   0.676102,  -0.685902, 
30267,   4.826331,  -8.474842,  -0.161201,  13.219009, -20.857540, -42.815756,  -0.484462,   0.900364,  -0.874133, -513.000000, -183.000000, -477.000000, -31.251962, -90.536616, -175.010400,  -0.161661,  -0.219159,   0.675220,  -0.685429, 
30268,   5.014992,  -8.359495,   0.001988,  12.856537, -20.823622, -41.557224,  -0.488606,   0.885791,  -0.871005, -514.500000, -187.500000, -475.500000, -31.645324, -90.534912, -174.939248,  -0.163605,  -0.221874,   0.674307,  -0.684985, 
30269,   5.068989,  -8.460517,  -0.131054,  13.541694, -20.874600, -40.776020,  -0.505994,   0.883082,  -0.869061, -523.500000, -187.500000, -475.500000, -32.029552, -90.532432, -174.858848,  -0.165438,  -0.224590,   0.673386,  -0.684575, 
30270,   5.182043,  -8.254436,   0.023961,  13.412322, -20.826730, -40.167380,  -0.519442,   0.888518,  -0.885013, -531.000000, -186.000000, -481.500000, -32.413136, -90.523768, -174.778752,  -0.167256,  -0.227306,   0.672423,  -0.684200, 
30271,   5.335459,  -8.362962,  -0.103625,  13.996641, -20.820118, -40.352296,  -0.520159,   0.879647,  -0.886168, -531.000000, -189.000000, -481.500000, -32.809002, -90.517352, -174.704352,  -0.169181,  -0.230049,   0.671434,  -0.683766, 
30272,   5.452881,  -8.234658,  -0.079646,  13.982868, -20.583070, -40.974848,  -0.520283,   0.846607,  -0.876922, -529.500000, -199.500000, -477.000000, -33.214062, -90.512352, -174.625568,  -0.171139,  -0.232868,   0.670422,  -0.683319, 
30273,   5.449480,  -8.177956,  -0.057206,  14.308681, -20.719770, -41.469760,  -0.527918,   0.855752,  -0.883870, -534.000000, -196.500000, -480.000000, -33.624648, -90.502968, -174.546976,  -0.173122,  -0.235723,   0.669370,  -0.682892, 
30274,   5.474420,  -8.195255,  -0.025163,  14.829466, -21.096628, -41.871048,  -0.542596,   0.849874,  -0.887365, -541.500000, -198.000000, -481.500000, -34.029212, -90.486744, -174.464288,  -0.175026,  -0.238570,   0.668259,  -0.682504, 
30275,   5.585847,  -8.160346,   0.025854,  15.135019, -21.471274, -41.935260,  -0.555622,   0.830326,  -0.888379, -547.500000, -204.000000, -481.500000, -34.439388, -90.473024, -174.361488,  -0.176847,  -0.241559,   0.667095,  -0.682117, 
30276,   5.514186,  -8.108059,   0.029487,  15.654913, -21.854544, -41.849312,  -0.559066,   0.821818,  -0.893747, -549.000000, -207.000000, -483.000000, -34.839464, -90.454952, -174.242320,  -0.178499,  -0.244588,   0.665881,  -0.681794, 
30277,   5.660606,  -8.024840,   0.083750,  16.019405, -22.262386, -41.417392,  -0.561622,   0.822995,  -0.902499, -550.500000, -207.000000, -486.000000, -35.242612, -90.433136, -174.129984,  -0.180201,  -0.247597,   0.664643,  -0.681475, 
30278,   5.722397,  -8.025654,   0.068275,  16.822042, -22.717686, -41.373128,  -0.558553,   0.824261,  -0.907360, -549.000000, -207.000000, -487.500000, -35.650352, -90.405544, -174.036080,  -0.182022,  -0.250526,   0.663374,  -0.681135, 
30279,   5.889940,  -7.908801,   0.067899,  17.038458, -22.977594, -41.655796,  -0.562151,   0.817745,  -0.898539, -550.500000, -208.500000, -484.500000, -36.067636, -90.386560, -173.936304,  -0.183883,  -0.253529,   0.662118,  -0.680743, 
30280,   5.910280,  -7.888644,   0.023736,  17.992434, -23.499216, -42.340144,  -0.564286,   0.793939,  -0.892351, -550.500000, -216.000000, -481.500000, -36.492336, -90.358752, -173.658064,  -0.184709,  -0.257617,   0.660388,  -0.680682, 
30281,   5.984719,  -7.824068,   0.056073,  18.238672, -23.818022, -43.111860,  -0.570815,   0.781358,  -0.902511, -553.500000, -220.500000, -484.500000, -36.923348, -90.339904, -173.367488,  -0.185514,  -0.261783,   0.658632,  -0.680565, 
30282,   5.958595,  -7.918164,  -0.095726,  19.046522, -23.962564, -43.764048,  -0.589993,   0.797117,  -0.879205, -564.000000, -213.000000, -478.500000, -37.352648, -90.334080, -173.063360,  -0.186260,  -0.265989,   0.656909,  -0.680406, 
30283,   5.976925,  -7.709993,   0.024093,  19.152912, -24.205912, -44.338692,  -0.602986,   0.783182,  -0.860914, -570.000000, -216.000000, -472.500000, -37.786636, -90.321496, -172.760288,  -0.187023,  -0.270216,   0.655109,  -0.680274, 
30284,   6.090696,  -7.833681,  -0.054553,  19.483768, -24.236412, -44.939000,  -0.604469,   0.757021,  -0.892182, -570.000000, -226.500000, -481.500000, -38.220512, -90.319144, -172.447200,  -0.187746,  -0.274467,   0.653309,  -0.680089, 
30285,   6.167059,  -7.709505,  -0.087276,  19.964076, -24.157098, -45.257204,  -0.601913,   0.755843,  -0.883430, -568.500000, -226.500000, -478.500000, -38.665472, -90.314568, -172.134752,  -0.188534,  -0.278770,   0.651445,  -0.679898, 
30286,   6.235639,  -7.636856,  -0.076355,  19.834178, -23.763564, -46.258284,  -0.599545,   0.751045,  -0.879794, -567.000000, -228.000000, -477.000000, -39.116812, -90.314808, -171.819728,  -0.189360,  -0.283109,   0.649572,  -0.679687, 
30287,   6.218275,  -7.681673,  -0.193892,  19.907906, -23.168910, -46.880292,  -0.612008,   0.742360,  -0.865464, -573.000000, -229.500000, -472.500000, -39.567564, -90.321056, -171.504352,  -0.190194,  -0.287423,   0.647705,  -0.679441, 
30288,   6.170419,  -7.623322,  -0.220832,  19.417460, -22.509072, -46.405940,  -0.635909,   0.729877,  -0.864027, -585.000000, -232.500000, -472.500000, -40.000320, -90.331832, -171.192656,  -0.190949,  -0.291586,   0.645870,  -0.679171, 
30289,   6.180547,  -7.735991,  -0.279194,  19.150706, -21.547304, -45.544708,  -0.629600,   0.733223,  -0.878287, -582.000000, -232.500000, -477.000000, -40.408096, -90.344048, -170.887904,  -0.191604,  -0.295562,   0.644112,  -0.678936, 
30290,   6.237195,  -7.520298,  -0.157116,  18.649150, -20.879428, -44.662264,  -0.640646,   0.739474,  -0.871299, -588.000000, -229.500000, -475.500000, -40.818252, -90.349304, -170.597904,  -0.192346,  -0.299473,   0.642331,  -0.678722, 
30291,   6.327623,  -7.633087,  -0.290617,  18.292674, -20.067176, -44.088976,  -0.656929,   0.715039,  -0.872566, -595.500000, -237.000000, -475.500000, -41.215308, -90.368208, -170.305920,  -0.193031,  -0.303282,   0.640623,  -0.678442, 
30292,   6.328351,  -7.413070,  -0.181741,  17.991480, -19.531140, -43.966736,  -0.664688,   0.691144,  -0.870268, -598.500000, -244.500000, -474.000000, -41.620140, -90.379376, -170.026304,  -0.193817,  -0.307068,   0.638861,  -0.678174, 
30293,   6.331673,  -7.561687,  -0.279522,  17.927390, -19.017714, -43.130564,  -0.665592,   0.678652,  -0.876538, -598.500000, -249.000000, -475.500000, -42.002592, -90.393528, -169.749792,  -0.194496,  -0.310698,   0.637164,  -0.677923, 
30294,   6.527713,  -7.319032,  -0.024387,  17.630308, -18.501044, -42.733996,  -0.666497,   0.666160,  -0.882808, -598.500000, -253.500000, -477.000000, -42.402652, -90.389512, -169.490464,  -0.195331,  -0.314348,   0.635335,  -0.677710, 
30295,   6.512086,  -7.341083,  -0.101240,  17.864608, -18.375806, -42.880040,  -0.675379,   0.661184,  -0.886951, -603.000000, -255.000000, -478.500000, -42.798696, -90.388016, -169.230704,  -0.196147,  -0.317964,   0.633508,  -0.677489, 
30296,   6.657409,  -7.163531,  -0.034528,  17.652702, -18.031352, -43.073520,  -0.676438,   0.650684,  -0.879031, -603.000000, -258.000000, -475.500000, -43.211020, -90.382016, -168.976704,  -0.197083,  -0.321639,   0.631615,  -0.677265, 
30297,   6.704003,  -7.305637,  -0.091392,  17.606252, -17.595684, -43.526580,  -0.687266,   0.625523,  -0.871871, -607.500000, -265.500000, -472.500000, -43.615300, -90.374608, -168.727104,  -0.197995,  -0.325242,   0.629735,  -0.677062, 
30298,   6.608486,  -7.200388,  -0.128164,  17.652188, -17.176232, -42.849468,  -0.684197,   0.626789,  -0.876733, -606.000000, -265.500000, -474.000000, -44.008872, -90.369424, -168.480144,  -0.198856,  -0.328742,   0.627857,  -0.676827, 
30299,   6.642591,  -7.099768,   0.064093,  17.076468, -16.858784, -41.910248,  -0.686582,   0.628781,  -0.890021, -607.500000, -265.500000, -478.500000, -44.394884, -90.354568, -168.244080,  -0.199710,  -0.332155,   0.625966,  -0.676649, 
30300,   6.702373,  -7.225953,  -0.249055,  17.581430, -16.766394, -39.257352,  -0.698703,   0.621725,  -0.884766, -613.500000, -267.000000, -477.000000, -44.743568, -90.356624, -167.997184,  -0.200330,  -0.335389,   0.624243,  -0.676471, 
30301,   6.793322,  -6.894480,   0.069028,  17.732570, -16.957942, -37.789256,  -0.699763,   0.611225,  -0.876846, -613.500000, -270.000000, -474.000000, -45.101164, -90.335880, -167.766304,  -0.201031,  -0.338617,   0.622392,  -0.676375, 
30302,   6.990431,  -7.051239,  -0.132887,  18.242686, -17.300732, -37.327504,  -0.709549,   0.593758,  -0.887259, -618.000000, -276.000000, -477.000000, -45.447344, -90.335904, -167.513936,  -0.201595,  -0.341850,   0.620609,  -0.676213, 
30303,   7.055380,  -6.900044,  -0.051775,  18.865864, -17.347388, -37.667656,  -0.713335,   0.583621,  -0.883552, -619.500000, -279.000000, -475.500000, -45.814092, -90.320856, -167.268784,  -0.202279,  -0.345174,   0.618684,  -0.676089, 
30304,   7.168090,  -6.795095,  -0.028700,  18.838144, -17.338674, -39.271076,  -0.712384,   0.563887,  -0.872574, -618.000000, -285.000000, -471.000000, -46.197880, -90.316248, -167.013216,  -0.203033,  -0.348615,   0.616717,  -0.675892, 
30305,   7.300492,  -6.783903,  -0.051443,  18.868202, -17.060344, -41.863152,  -0.718384,   0.556556,  -0.886693, -621.000000, -288.000000, -475.500000, -46.617072, -90.314264, -166.756416,  -0.203996,  -0.352235,   0.614631,  -0.675619, 
30306,   7.178327,  -6.732615,   0.033976,  18.665958, -16.409029, -43.712372,  -0.730351,   0.547508,  -0.895627, -627.000000, -291.000000, -478.500000, -47.044624, -90.303448, -166.510096,  -0.205041,  -0.355846,   0.612476,  -0.675354, 
30307,   7.110335,  -6.639037,   0.069533,  18.643194, -16.189047, -44.196076,  -0.735008,   0.530492,  -0.878886, -628.500000, -295.500000, -472.500000, -47.475500, -90.288560, -166.269920,  -0.206132,  -0.359444,   0.610296,  -0.675105, 
30308,   7.167157,  -6.724222,  -0.005642,  18.301544, -15.799758, -43.018024,  -0.735538,   0.525242,  -0.874926, -628.500000, -297.000000, -471.000000, -47.882448, -90.282080, -166.026240,  -0.207088,  -0.362910,   0.608216,  -0.674865, 
30309,   7.131237,  -6.553148,  -0.086056,  18.609004, -15.657796, -41.201904,  -0.740633,   0.530404,  -0.882775, -631.500000, -295.500000, -474.000000, -48.281900, -90.281832, -165.781216,  -0.208004,  -0.366308,   0.606150,  -0.674582, 
30310,   7.153836,  -6.599639,  -0.238181,  18.418590, -15.423582, -38.963184,  -0.750761,   0.511307,  -0.884113, -636.000000, -301.500000, -474.000000, -48.637408, -90.298048, -165.523552,  -0.208639,  -0.369502,   0.604268,  -0.674317, 
30311,   7.177962,  -6.524197,  -0.184245,  18.803154, -15.244569, -36.823548,  -0.761386,   0.492574,  -0.862186, -640.500000, -306.000000, -466.500000, -48.985444, -90.296808, -165.281440,  -0.209269,  -0.372603,   0.602349,  -0.674140, 
30312,   7.314848,  -6.519005,  -0.097647,  18.269496, -15.056149, -34.998456,  -0.763942,   0.493751,  -0.870937, -642.000000, -306.000000, -469.500000, -49.307928, -90.309808, -165.028992,  -0.209734,  -0.375589,   0.600550,  -0.673954, 
30313,   7.376728,  -6.320817,  -0.035674,  18.313744, -14.776120, -34.140108,  -0.758007,   0.489856,  -0.895428, -639.000000, -309.000000, -477.000000, -49.646804, -90.309272, -164.791552,  -0.210337,  -0.378593,   0.598643,  -0.673773, 
30314,   7.473856,  -6.340314,   0.068905,  17.929430, -14.479238, -33.660404,  -0.761965,   0.478904,  -0.887184, -640.500000, -312.000000, -474.000000, -49.974320, -90.300968, -164.561312,  -0.210892,  -0.381510,   0.596746,  -0.673648, 
30315,   7.648031,  -6.194373,   0.017778,  18.316468, -14.454525, -33.873276,  -0.762853,   0.469219,  -0.883801, -640.500000, -315.000000, -472.500000, -50.323900, -90.299992, -164.326832,  -0.211574,  -0.384537,   0.594783,  -0.673446, 
30316,   7.712639,  -6.209425,   0.026511,  18.643088, -14.492883, -34.270692,  -0.770050,   0.456187,  -0.866158, -643.500000, -318.000000, -466.500000, -50.675820, -90.282216, -164.103216,  -0.212278,  -0.387542,   0.592739,  -0.673310, 
30317,   7.708066,  -6.040422,   0.038396,  19.062664, -14.618509, -34.294412,  -0.781984,   0.452752,  -0.855787, -649.500000, -318.000000, -463.500000, -51.037012, -90.262600, -163.877824,  -0.213015,  -0.390592,   0.590620,  -0.673155, 
30318,   7.732335,  -6.208694,  -0.091373,  19.669660, -14.859100, -34.100532,  -0.779290,   0.446776,  -0.870879, -648.000000, -321.000000, -468.000000, -51.373788, -90.246928, -163.643984,  -0.213574,  -0.393547,   0.588572,  -0.673048, 
30319,   7.848905,  -5.938137,   0.021220,  19.807744, -14.843212, -34.412036,  -0.779290,   0.446776,  -0.870879, -648.000000, -321.000000, -468.000000, -51.735884, -90.234936, -163.404496,  -0.214263,  -0.396650,   0.586432,  -0.672894, 
30320,   7.760658,  -6.124170,  -0.163695,  20.366920, -14.847609, -35.023864,  -0.780349,   0.436276,  -0.862959, -648.000000, -324.000000, -465.000000, -52.086636, -90.239384, -163.148592,  -0.214847,  -0.399740,   0.584359,  -0.672712, 
30321,   7.835016,  -5.897776,  -0.043773,  19.623498, -14.573027, -35.592868,  -0.787749,   0.416816,  -0.860083, -651.000000, -330.000000, -463.500000, -52.443300, -90.254480, -162.885984,  -0.215454,  -0.402846,   0.582263,  -0.672449, 
30322,   7.798146,  -6.135384,  -0.253128,  19.886196, -14.130963, -36.008564,  -0.790631,   0.419171,  -0.850107, -652.500000, -328.500000, -460.500000, -52.788156, -90.278312, -162.618736,  -0.216000,  -0.405892,   0.580234,  -0.672180, 
30323,   7.873077,  -5.786947,   0.016782,  19.245532, -13.782387, -35.974612,  -0.800792,   0.394462,  -0.870750, -657.000000, -337.500000, -466.500000, -53.151900, -90.278472, -162.376656,  -0.216724,  -0.408946,   0.578080,  -0.671960, 
30324,   7.900707,  -6.038475,  -0.157281,  19.481078, -13.409311, -35.974096,  -0.809861,   0.385865,  -0.880008, -661.500000, -340.500000, -469.500000, -53.497636, -90.279688, -162.135632,  -0.217353,  -0.411893,   0.575990,  -0.671769, 
30325,   7.901946,  -5.682065,   0.117396,  19.293258, -13.210600, -35.467864,  -0.811482,   0.364502,  -0.887433, -661.500000, -348.000000, -471.000000, -53.859516, -90.251248, -161.923088,  -0.218133,  -0.414817,   0.573745,  -0.671631, 
30326,   7.931905,  -5.803655,  -0.024692,  19.575954, -13.209155, -35.055684,  -0.813088,   0.345946,  -0.885205, -661.500000, -354.000000, -469.500000, -54.203404, -90.231800, -161.701056,  -0.218785,  -0.417676,   0.571576,  -0.671505, 
30327,   8.042088,  -5.630529,   0.062410,  19.491736, -13.049051, -35.097284,  -0.810532,   0.344768,  -0.876454, -660.000000, -354.000000, -466.500000, -54.565004, -90.215960, -161.477056,  -0.219540,  -0.420612,   0.569337,  -0.671324, 
30328,   8.104521,  -5.520221,   0.031672,  18.997392, -12.784367, -35.750744,  -0.807788,   0.347212,  -0.862588, -658.500000, -352.500000, -462.000000, -54.930944, -90.214968, -161.243040,  -0.220316,  -0.423582,   0.567119,  -0.671082, 
30329,   8.064571,  -5.554761,  -0.055402,  19.190292, -12.430402, -36.029528,  -0.817574,   0.329744,  -0.873001, -663.000000, -358.500000, -465.000000, -55.302508, -90.219120, -161.008208,  -0.221136,  -0.426555,   0.564884,  -0.670794, 
30330,   8.033650,  -5.550405,  -0.105794,  18.446416, -12.016930, -35.525608,  -0.818291,   0.320873,  -0.874156, -663.000000, -361.500000, -465.000000, -55.650068, -90.239488, -160.763696,  -0.221822,  -0.429420,   0.562788,  -0.670499, 
30331,   8.045276,  -5.616980,  -0.239130,  18.381294, -11.514467, -34.708024,  -0.822436,   0.306301,  -0.871027, -664.500000, -366.000000, -463.500000, -55.987616, -90.270168, -160.516768,  -0.222478,  -0.432223,   0.560775,  -0.670188, 
30332,   8.034720,  -5.477683,  -0.127572,  17.782056, -11.152174, -33.707352,  -0.819725,   0.303131,  -0.876466, -663.000000, -367.500000, -465.000000, -56.309828, -90.294800, -160.280368,  -0.223084,  -0.434901,   0.558811,  -0.669917, 
30333,   8.000466,  -5.663911,  -0.325660,  17.715552, -10.773771, -32.796258,  -0.812261,   0.293171,  -0.864981, -658.500000, -370.500000, -460.500000, -56.608568, -90.334016, -160.036128,  -0.223555,  -0.437449,   0.556958,  -0.669611, 
30334,   7.972943,  -5.424388,  -0.053045,  16.576874, -10.204187, -31.510638,  -0.818603,   0.284212,  -0.870025, -661.500000, -373.500000, -462.000000, -56.895568, -90.355488, -159.815712,  -0.224032,  -0.439854,   0.555132,  -0.669376, 
30335,   7.939596,  -5.584209,  -0.153731,  16.123648,  -9.741485, -29.940886,  -0.827314,   0.280051,  -0.878706, -666.000000, -375.000000, -465.000000, -57.151340, -90.375728, -159.602928,  -0.224368,  -0.442072,   0.553443,  -0.669200, 
30336,   7.926337,  -5.382549,   0.040733,  15.493909,  -9.246921, -27.627922,  -0.830929,   0.270728,  -0.879537, -667.500000, -378.000000, -465.000000, -57.399572, -90.370512, -159.420720,  -0.224743,  -0.444151,   0.551749,  -0.669107, 
30337,   7.977947,  -5.361817,  -0.026998,  14.792380,  -8.912633, -24.988852,  -0.833623,   0.276704,  -0.864445, -669.000000, -375.000000, -460.500000, -57.619968, -90.373760, -159.238272,  -0.224987,  -0.446079,   0.550208,  -0.669031, 
30338,   8.198354,  -5.263780,  -0.017485,  14.614058,  -8.619312, -22.783758,  -0.840461,   0.268108,  -0.846225, -672.000000, -376.500000, -454.500000, -57.837200, -90.363040, -159.074464,  -0.225264,  -0.447919,   0.548656,  -0.668983, 
30339,   8.376974,  -5.101757,   0.029857,  14.362654,  -8.470519, -22.209492,  -0.841708,   0.253987,  -0.843420, -672.000000, -381.000000, -453.000000, -58.066736, -90.349656, -158.915792,  -0.225632,  -0.449793,   0.547055,  -0.668914, 
30340,   8.382982,  -5.183976,  -0.116252,  14.827740,  -8.538196, -22.284864,  -0.844418,   0.257156,  -0.837981, -673.500000, -379.500000, -451.500000, -58.289668, -90.349968, -158.744160,  -0.225937,  -0.451661,   0.545496,  -0.668810, 
30341,   8.245310,  -5.090868,  -0.135772,  15.090137,  -8.583866, -21.428928,  -0.841862,   0.255979,  -0.829229, -672.000000, -379.500000, -448.500000, -58.504348, -90.356848, -158.565104,  -0.226177,  -0.453509,   0.543976,  -0.668708, 
30342,   8.262610,  -5.084720,  -0.125475,  15.158031,  -8.717358, -20.048718,  -0.837329,   0.239954,  -0.836725, -669.000000, -385.500000, -450.000000, -58.695140, -90.366592, -158.380336,  -0.226256,  -0.455263,   0.542541,  -0.668654, 
30343,   8.237604,  -5.236697,  -0.190224,  15.428286,  -8.678193, -18.833402,  -0.844747,   0.217688,  -0.843502, -672.000000, -393.000000, -451.500000, -58.861920, -90.378280, -158.192128,  -0.226184,  -0.456914,   0.541196,  -0.668648, 
30344,   8.331098,  -5.029013,  -0.006893,  15.001760,  -8.640681, -17.480744,  -0.857414,   0.202576,  -0.843939, -678.000000, -397.500000, -451.500000, -59.029664, -90.373920, -158.019504,  -0.226145,  -0.458525,   0.539814,  -0.668689, 
30345,   8.428672,  -5.091875,   0.005462,  15.023165,  -8.461734, -16.684395,  -0.853099,   0.217962,  -0.851605, -676.500000, -393.000000, -454.500000, -59.191544, -90.363056, -157.853760,  -0.226084,  -0.460082,   0.538434,  -0.668751, 
30346,   8.464833,  -4.860551,   0.064512,  14.858009,  -8.334663, -16.455744,  -0.850763,   0.207551,  -0.867274, -675.000000, -397.500000, -459.000000, -59.369936, -90.348896, -157.693504,  -0.226138,  -0.461692,   0.536987,  -0.668786, 
30347,   8.478642,  -4.954339,  -0.021218,  15.153514,  -8.246786, -16.339724,  -0.848224,   0.203567,  -0.868176, -673.500000, -399.000000, -459.000000, -59.540224, -90.324848, -157.541376,  -0.226152,  -0.463244,   0.535545,  -0.668868, 
30348,   8.623757,  -4.752398,   0.030098,  14.440007,  -8.208929, -16.798496,  -0.848036,   0.207188,  -0.863061, -673.500000, -397.500000, -457.500000, -59.724304, -90.325600, -157.369888,  -0.226232,  -0.464893,   0.534104,  -0.668840, 
30349,   8.604413,  -4.941066,  -0.124141,  15.012299,  -8.022819, -17.842908,  -0.855967,   0.182479,  -0.856225, -676.500000, -405.000000, -454.500000, -59.911204, -90.320432, -157.204512,  -0.226340,  -0.466534,   0.532638,  -0.668823, 
30350,   8.688870,  -4.749464,   0.005405,  14.036432,  -7.761952, -19.270508,  -0.857417,   0.161930,  -0.868188, -676.500000, -412.500000, -457.500000, -60.113384, -90.332448, -157.027232,  -0.226540,  -0.468264,   0.531157,  -0.668722, 
30351,   8.614241,  -4.840766,  -0.060261,  14.736671,  -7.661075, -20.302450,  -0.853273,   0.176503,  -0.871317, -675.000000, -408.000000, -459.000000, -60.331616, -90.323176, -156.870416,  -0.226867,  -0.470014,   0.529569,  -0.668652, 
30352,   8.608013,  -4.732841,  -0.000955,  14.245906,  -7.675080, -20.751956,  -0.852727,   0.184559,  -0.865624, -675.000000, -405.000000, -457.500000, -60.543112, -90.330240, -156.698272,  -0.227132,  -0.471765,   0.528032,  -0.668549, 
30353,   8.574370,  -4.721378,   0.016243,  15.164762,  -7.896487, -20.919826,  -0.855983,   0.179672,  -0.865878, -676.500000, -406.500000, -457.500000, -60.767348, -90.306952, -156.551216,  -0.227491,  -0.473509,   0.526359,  -0.668504, 
30354,   8.560019,  -4.771454,  -0.034913,  15.022553,  -7.882785, -20.816714,  -0.858898,   0.176414,  -0.875206, -678.000000, -408.000000, -460.500000, -60.969604, -90.307880, -156.377376,  -0.227665,  -0.475226,   0.524806,  -0.668447, 
30355,   8.593430,  -4.618063,   0.028259,  15.574721,  -8.009742, -20.264602,  -0.860673,   0.157043,  -0.868441, -678.000000, -414.000000, -457.500000, -61.190424, -90.294512, -156.215216,  -0.227958,  -0.476999,   0.523137,  -0.668400, 
30356,   8.660588,  -4.647464,   0.015231,  15.553536,  -8.118188, -20.219380,  -0.867854,   0.146818,  -0.841146, -681.000000, -415.500000, -448.500000, -61.397848, -90.297336, -156.034048,  -0.228129,  -0.478761,   0.521533,  -0.668342, 
30357,   8.762547,  -4.590985,   0.033669,  16.329041,  -8.208971, -20.616650,  -0.871298,   0.138309,  -0.846514, -682.500000, -418.500000, -450.000000, -61.622588, -90.279648, -155.868928,  -0.228408,  -0.480560,   0.519795,  -0.668308, 
30358,   8.840346,  -4.521551,  -0.011670,  16.090206,  -8.175574, -21.931870,  -0.878390,   0.114866,  -0.872019, -685.500000, -427.500000, -457.500000, -61.854496, -90.284648, -155.680448,  -0.228688,  -0.482450,   0.518058,  -0.668207, 
30359,   8.937812,  -4.483085,   0.099377,  16.421087,  -8.127385, -23.773356,  -0.881801,   0.111971,  -0.858082, -687.000000, -427.500000, -453.000000, -62.115060, -90.263472, -155.515200,  -0.229157,  -0.484401,   0.516130,  -0.668110, 
30360,   8.831072,  -4.483345,   0.083237,  16.957848,  -8.266635, -25.451520,  -0.877982,   0.127721,  -0.842484, -685.500000, -421.500000, -448.500000, -62.380348, -90.242984, -155.345664,  -0.229633,  -0.486386,   0.514163,  -0.668011, 
30361,   8.776944,  -4.387357,   0.133653,  17.778080,  -8.571181, -26.464206,  -0.883795,   0.124011,  -0.851488, -688.500000, -423.000000, -451.500000, -62.662184, -90.213360, -155.176928,  -0.230172,  -0.488458,   0.512072,  -0.667922, 
30362,   8.748363,  -4.445107,   0.038581,  18.693104,  -8.963873, -26.496884,  -0.879058,   0.114415,  -0.844216, -685.500000, -426.000000, -448.500000, -62.932316, -90.191744, -154.991392,  -0.230579,  -0.490532,   0.510003,  -0.667859, 
30363,   8.755307,  -4.378786,   0.021366,  19.419170,  -9.303046, -26.198044,  -0.880459,   0.102285,  -0.827221, -685.500000, -429.000000, -442.500000, -63.196240, -90.175928, -154.792080,  -0.230895,  -0.492626,   0.507931,  -0.667815, 
30364,   8.816843,  -4.312488,   0.143444,  20.155480,  -9.508831, -26.097852,  -0.895682,   0.088351,  -0.836409, -693.000000, -433.500000, -445.500000, -63.464932, -90.130576, -154.610784,  -0.231212,  -0.494702,   0.505726,  -0.667842, 
30365,   8.869066,  -4.291182,   0.012241,  20.917938,  -9.715871, -26.232380,  -0.895528,   0.086359,  -0.850599, -693.000000, -435.000000, -450.000000, -63.735092, -90.105064, -154.404848,  -0.231475,  -0.496840,   0.503509,  -0.667817, 
30366,   8.939419,  -4.180515,   0.089562,  21.193490,  -9.773851, -27.013636,  -0.888593,   0.071148,  -0.835153, -688.500000, -439.500000, -444.000000, -64.016968, -90.078576, -154.194752,  -0.231779,  -0.499044,   0.501213,  -0.667786, 
30367,   8.914397,  -4.297688,  -0.083031,  22.113528,  -9.816373, -27.961584,  -0.883123,   0.073229,  -0.817074, -685.500000, -438.000000, -438.000000, -64.300308, -90.069112, -153.963760,  -0.232045,  -0.501307,   0.498913,  -0.667724, 
30368,   8.773031,  -4.207208,  -0.128876,  21.556884,  -9.709782, -28.244314,  -0.892346,   0.066625,  -0.812142, -690.000000, -439.500000, -436.500000, -64.572012, -90.087192, -153.706896,  -0.232215,  -0.503571,   0.496706,  -0.667625, 
30369,   7.800529,  -4.518585,  -0.257910,  21.715832,  -9.339673, -23.614726,  -0.902287,   0.051149,  -0.808365, -694.500000, -444.000000, -435.000000, -64.818304, -90.087968, -153.468112,  -0.232265,  -0.505668,   0.494577,  -0.667612, 
30370,   8.194220,  -4.737437,  -0.369027,  19.404494,  -8.826945, -14.797591,  -0.901774,   0.053593,  -0.821977, -694.500000, -444.000000, -439.500000, -65.006300, -90.077552, -153.249840,  -0.232044,  -0.507438,   0.492720,  -0.667720, 
30371,   8.601562,  -4.019039,   0.109580,  18.189744,  -8.454461, -10.322340,  -0.893455,   0.047705,  -0.833179, -690.000000, -447.000000, -442.500000, -65.101488, -90.080360, -153.040864,  -0.231391,  -0.508732,   0.491381,  -0.667931, 
30372,   8.845317,  -4.440169,  -0.214660,  18.355724,  -7.986864,  -9.259148,  -0.891478,   0.032858,  -0.849426, -688.500000, -453.000000, -447.000000, -65.169220, -90.094744, -152.824016,  -0.230584,  -0.509917,   0.490197,  -0.668165, 
30373,   8.925958,  -3.903863,   0.068404,  16.075567,  -7.544888,  -9.093652,  -0.897665,   0.021907,  -0.868660, -691.500000, -457.500000, -453.000000, -65.264436, -90.120472, -152.612368,  -0.230019,  -0.511173,   0.488977,  -0.668287, 
30374,   8.926984,  -4.063143,  -0.080417,  17.159044,  -7.350317,  -8.825873,  -0.897820,   0.023899,  -0.854470, -691.500000, -456.000000, -448.500000, -65.368668, -90.120600, -152.428224,  -0.229555,  -0.512401,   0.487689,  -0.668448, 
30375,   9.005495,  -4.059920,  -0.077469,  16.275536,  -7.323767,  -9.252877,  -0.907727,   0.014036,  -0.831388, -696.000000, -457.500000, -441.000000, -65.458212, -90.154056, -152.213744,  -0.228978,  -0.513626,   0.486524,  -0.668558, 
30376,   8.984320,  -4.056972,  -0.028051,  16.715923,  -7.185646,  -9.880887,  -0.902477,   0.006883,  -0.837729, -693.000000, -460.500000, -442.500000, -65.560004, -90.152168, -152.034448,  -0.228520,  -0.514824,   0.485255,  -0.668727, 
30377,   9.093340,  -4.026184,   0.019995,  16.124918,  -7.234774, -11.063168,  -0.896852,   0.006971,  -0.833839, -690.000000, -460.500000, -441.000000, -65.661972, -90.154736, -151.849520,  -0.228050,  -0.516035,   0.483983,  -0.668888, 
30378,   9.309736,  -3.850481,   0.078974,  16.585274,  -7.151138, -13.650087,  -0.894484,   0.002173,  -0.830203, -688.500000, -462.000000, -439.500000, -65.822556, -90.134832, -151.687840,  -0.227955,  -0.517430,   0.482411,  -0.668975, 
30379,   9.362506,  -3.952434,  -0.185685,  16.406168,  -6.823470, -17.519048,  -0.895030,  -0.005883,  -0.835896, -688.500000, -465.000000, -441.000000, -66.012564, -90.173008, -151.471152,  -0.227974,  -0.519059,   0.480793,  -0.668869, 
30380,   8.927383,  -3.848172,  -0.328727,  15.300167,  -6.146937, -19.677540,  -0.895559,  -0.011133,  -0.831936, -688.500000, -466.500000, -439.500000, -66.223932, -90.254808, -151.224256,  -0.228139,  -0.520807,   0.479186,  -0.668595, 
30381,   8.791759,  -4.320176,  -0.433338,  12.544665,  -5.024268, -18.817656,  -0.904970,  -0.021358,  -0.832119, -693.000000, -469.500000, -439.500000, -66.370920, -90.361544, -150.971648,  -0.228010,  -0.522255,   0.477985,  -0.668358, 
30382,   8.958710,  -3.709410,  -0.339022,   9.830710,  -4.044079, -17.968548,  -0.923230,  -0.030946,  -0.817140, -702.000000, -471.000000, -435.000000, -66.558984, -90.464888, -150.756688,  -0.228330,  -0.523719,   0.476744,  -0.667986, 
30383,   9.258726,  -3.793526,  -0.248318,   8.586611,  -3.126723, -18.314074,  -0.915424,  -0.039277,  -0.814729, -697.500000, -474.000000, -433.500000, -66.771468, -90.543416, -150.584432,  -0.228932,  -0.525152,   0.475439,  -0.667590, 
30384,   9.250147,  -3.913014,  -0.483349,   6.972653,  -2.527480, -20.157528,  -0.906917,  -0.041544,  -0.820816, -693.000000, -475.500000, -435.000000, -66.966156, -90.668648, -150.383296,  -0.229478,  -0.526530,   0.474349,  -0.667094, 
30385,   9.216625,  -3.569946,   0.049553,   6.523894,  -2.243556, -22.254836,  -0.909285,  -0.036745,  -0.824452, -694.500000, -474.000000, -436.500000, -67.212888, -90.694176, -150.287872,  -0.230489,  -0.527877,   0.472918,  -0.666700, 
30386,   9.139576,  -3.934430,  -0.166089,   7.024819,  -2.216885, -23.780564,  -0.909302,  -0.039552,  -0.834105, -694.500000, -475.500000, -439.500000, -67.440616, -90.689464, -150.217504,  -0.231395,  -0.529102,   0.471513,  -0.666419, 
30387,   9.055593,  -3.851322,  -0.186134,   5.715597,  -1.888937, -24.607238,  -0.913276,  -0.053310,  -0.835513, -696.000000, -480.000000, -439.500000, -67.658064, -90.744664, -150.096896,  -0.232223,  -0.530360,   0.470262,  -0.666004, 
30388,   9.086268,  -3.708370,   0.093929,   6.043225,  -1.811242, -24.924252,  -0.918884,  -0.050592,  -0.829750, -699.000000, -478.500000, -438.000000, -67.901200, -90.692256, -150.082976,  -0.233322,  -0.531497,   0.468757,  -0.665761, 
30389,   9.215307,  -3.747138,   0.004569,   5.734210,  -1.875081, -25.372642,  -0.909473,  -0.040366,  -0.829567, -694.500000, -475.500000, -438.000000, -68.136392, -90.676136, -150.032272,  -0.234329,  -0.532679,   0.467328,  -0.665461, 
30390,   9.246702,  -3.494211,   0.250484,   6.549311,  -2.085690, -26.185484,  -0.905095,  -0.054399,  -0.822873, -691.500000, -480.000000, -435.000000, -68.407560, -90.589448, -150.047072,  -0.235599,  -0.533884,   0.465626,  -0.665243, 
30391,   9.340302,  -3.412601,   0.260877,   7.851611,  -2.461306, -27.738540,  -0.913447,  -0.054124,  -0.830976, -696.000000, -480.000000, -438.000000, -68.702048, -90.492248, -150.059728,  -0.236942,  -0.535216,   0.463746,  -0.665023, 
30392,   9.247717,  -3.375521,   0.295425,   9.617624,  -3.101242, -28.580438,  -0.919585,  -0.056656,  -0.821252, -699.000000, -480.000000, -435.000000, -69.005552, -90.384024, -150.067072,  -0.238250,  -0.536627,   0.461731,  -0.664831, 
30393,   9.197555,  -3.333624,   0.471801,  11.701144,  -3.872962, -28.371028,  -0.920285,  -0.062721,  -0.812755, -699.000000, -481.500000, -432.000000, -69.302776, -90.228616, -150.099184,  -0.239437,  -0.538005,   0.459581,  -0.664774, 
30394,   9.254086,  -3.387435,   0.332645,  14.384302,  -4.702550, -28.190856,  -0.915548,  -0.072318,  -0.805483, -696.000000, -484.500000, -429.000000, -69.588416, -90.098536, -150.081280,  -0.240383,  -0.539487,   0.457399,  -0.664738, 
30395,   9.250866,  -3.216192,   0.479098,  16.774059,  -5.677767, -28.014564,  -0.922591,  -0.087342,  -0.802030, -699.000000, -489.000000, -427.500000, -69.880224, -89.931672, -150.073408,  -0.241244,  -0.541033,   0.455019,  -0.664809, 
30396,   9.279099,  -3.226966,   0.420875,  20.152136,  -6.707730, -28.049802,  -0.926597,  -0.106713,  -0.822744, -700.500000, -496.500000, -433.500000, -70.172816, -89.762216, -150.036304,  -0.241923,  -0.542701,   0.452479,  -0.664938, 
30397,   9.336511,  -3.151897,   0.461420,  22.839186,  -7.655704, -28.601766,  -0.921893,  -0.121923,  -0.834777, -697.500000, -502.500000, -436.500000, -70.467680, -89.586944, -149.974720,  -0.242437,  -0.544481,   0.449772,  -0.665123, 
30398,   9.355837,  -3.179250,   0.334135,  25.281606,  -8.316448, -28.953090,  -0.925850,  -0.132874,  -0.826532, -699.000000, -505.500000, -433.500000, -70.763664, -89.449232, -149.849504,  -0.242760,  -0.546428,   0.446967,  -0.665280, 
30399,   9.238039,  -3.057420,   0.432947,  27.612118,  -8.987405, -28.642468,  -0.928903,  -0.131334,  -0.812019, -700.500000, -504.000000, -429.000000, -71.059328, -89.285888, -149.726176,  -0.242966,  -0.548420,   0.444023,  -0.665532, 
30400,   9.166962,  -3.055627,   0.365271,  29.799344,  -9.688281, -27.282838,  -0.925834,  -0.130068,  -0.816880, -699.000000, -504.000000, -430.500000, -71.341712, -89.148064, -149.553280,  -0.242928,  -0.550496,   0.441050,  -0.665818, 
30401,   9.101971,  -3.049702,   0.250954,  31.663228, -10.124860, -25.020830,  -0.924370,  -0.147358,  -0.819514, -697.500000, -510.000000, -430.500000, -71.602608, -89.028952, -149.343984,  -0.242642,  -0.552585,   0.438110,  -0.666156, 
30402,   9.101933,  -3.092468,  -0.019435,  31.778728, -10.139096, -22.325770,  -0.924728,  -0.151794,  -0.820092, -697.500000, -511.500000, -430.500000, -71.823832, -89.032504, -149.005792,  -0.241967,  -0.554737,   0.435441,  -0.666378, 
30403,   9.224547,  -2.876535,   0.077822,  32.173950, -10.084068, -19.877812,  -0.921830,  -0.151342,  -0.820416, -696.000000, -511.500000, -430.500000, -72.044336, -88.991608, -148.710688,  -0.241316,  -0.556788,   0.432702,  -0.666660, 
30404,   9.243784,  -3.067510,  -0.085049,  32.176980, -10.022699, -18.498722,  -0.926504,  -0.171165,  -0.813327, -697.500000, -517.500000, -427.500000, -72.228392, -89.024952, -148.339808,  -0.240377,  -0.558820,   0.430198,  -0.666905, 
30405,   9.249703,  -2.847760,   0.084849,  31.918594,  -9.966882, -17.163226,  -0.927221,  -0.180036,  -0.814482, -697.500000, -520.500000, -427.500000, -72.416656, -89.021040, -148.008560,  -0.239514,  -0.560793,   0.427645,  -0.667206, 
30406,   9.357008,  -2.851668,  -0.094681,  31.935970,  -9.745396, -16.555693,  -0.929761,  -0.176052,  -0.813580, -699.000000, -519.000000, -427.500000, -72.599784, -89.069800, -147.626640,  -0.238587,  -0.562819,   0.425171,  -0.667433, 
30407,   9.424962,  -2.823085,  -0.007204,  31.601018,  -9.519154, -16.338757,  -0.933905,  -0.190624,  -0.810451, -700.500000, -523.500000, -426.000000, -72.778376, -89.091472, -147.274544,  -0.237670,  -0.564748,   0.422688,  -0.667692, 
30408,   9.471264,  -2.859631,  -0.192983,  31.167226,  -9.371258, -16.801198,  -0.934964,  -0.201124,  -0.802531, -700.500000, -526.500000, -423.000000, -72.953552, -89.181120, -146.859760,  -0.236707,  -0.566749,   0.420304,  -0.667846, 
30409,   9.412773,  -2.724247,  -0.027162,  30.919280,  -9.158893, -17.330068,  -0.932066,  -0.200673,  -0.802855, -699.000000, -526.500000, -423.000000, -73.142760, -89.203360, -146.515984,  -0.235909,  -0.568676,   0.417804,  -0.668080, 
30410,   9.340217,  -2.968690,  -0.366952,  30.555678,  -8.758110, -17.206080,  -0.927688,  -0.214705,  -0.796160, -696.000000, -531.000000, -420.000000, -73.308432, -89.339816, -146.062704,  -0.234902,  -0.570655,   0.415525,  -0.668161, 
30411,   9.226741,  -2.843342,  -0.262598,  29.396806,  -8.532596, -16.144379,  -0.933266,  -0.247020,  -0.795341, -697.500000, -541.500000, -418.500000, -73.458912, -89.461152, -145.634160,  -0.233876,  -0.572502,   0.413342,  -0.668274, 
30412,   9.204579,  -2.922568,  -0.404522,  28.882042,  -8.225258, -14.638977,  -0.924931,  -0.250101,  -0.796891, -693.000000, -543.000000, -418.500000, -73.598848, -89.616312, -145.181072,  -0.232823,  -0.574329,   0.411284,  -0.668350, 
30413,   9.261128,  -2.970195,  -0.479608,  26.873912,  -7.625424, -13.046201,  -0.927112,  -0.241681,  -0.795412, -694.500000, -540.000000, -418.500000, -73.704000, -89.816912, -144.696912,  -0.231621,  -0.576043,   0.409502,  -0.668405, 
30414,   9.286150,  -2.845037,  -0.328320,  25.238532,  -7.098825, -11.691401,  -0.926924,  -0.238060,  -0.790297, -694.500000, -538.500000, -417.000000, -73.807040, -89.967080, -144.281696,  -0.230554,  -0.577587,   0.407767,  -0.668495, 
30415,   9.306922,  -2.877321,  -0.243662,  23.483576,  -6.594302, -10.845013,  -0.928700,  -0.257431,  -0.783532, -694.500000, -544.500000, -414.000000, -73.898496, -90.074464, -143.923824,  -0.229541,  -0.578966,   0.406126,  -0.668648, 
30416,   9.409822,  -2.956216,  -0.235408,  21.426234,  -6.008615, -10.695784,  -0.932657,  -0.268383,  -0.775288, -696.000000, -547.500000, -411.000000, -73.975064, -90.173712, -143.593296,  -0.228563,  -0.580210,   0.404648,  -0.668810, 
30417,   9.471231,  -2.638360,  -0.015652,  19.761468,  -5.558697, -11.022337,  -0.932657,  -0.268383,  -0.775288, -696.000000, -547.500000, -411.000000, -74.081720, -90.194696, -143.359360,  -0.227929,  -0.581369,   0.403045,  -0.668994, 
30418,   9.487508,  -2.752946,  -0.081248,  19.485992,  -5.197869, -11.329367,  -0.932674,  -0.271189,  -0.784940, -696.000000, -549.000000, -414.000000, -74.188568, -90.199904, -143.149744,  -0.227355,  -0.582464,   0.401465,  -0.669177, 
30419,   9.558340,  -2.639718,  -0.110741,  18.262164,  -4.896137, -12.025021,  -0.932690,  -0.273996,  -0.794593, -696.000000, -550.500000, -417.000000, -74.298912, -90.229616, -142.924000,  -0.226833,  -0.583576,   0.399927,  -0.669302, 
30420,   9.502576,  -2.604127,  -0.062149,  18.007844,  -4.704050, -12.851190,  -0.930851,  -0.284044,  -0.786997, -694.500000, -553.500000, -414.000000, -74.430136, -90.248656, -142.717728,  -0.226494,  -0.584713,   0.398318,  -0.669390, 
30421,   9.498128,  -2.838303,  -0.280702,  17.248692,  -4.305546, -13.548707,  -0.931535,  -0.287302,  -0.768847, -694.500000, -553.500000, -408.000000, -74.542832, -90.345864, -142.439504,  -0.226027,  -0.585877,   0.396890,  -0.669385, 
30422,   9.371405,  -2.750049,  -0.114570,  15.850732,  -4.124389, -13.543483,  -0.943844,  -0.297979,  -0.768706, -700.500000, -556.500000, -408.000000, -74.650552, -90.382744, -142.232640,  -0.225639,  -0.586888,   0.395494,  -0.669457, 
30423,   9.425828,  -2.602063,  -0.050916,  15.209270,  -3.819186, -13.292743,  -0.947630,  -0.308117,  -0.765000, -702.000000, -559.500000, -406.500000, -74.778248, -90.422136, -142.032688,  -0.225422,  -0.587936,   0.394044,  -0.669470, 
30424,   9.494037,  -2.712649,  -0.156123,  14.584493,  -3.585857, -13.173638,  -0.944903,  -0.308479,  -0.760786, -700.500000, -559.500000, -405.000000, -74.893032, -90.466736, -141.833712,  -0.225160,  -0.588912,   0.392687,  -0.669478, 
30425,   9.455244,  -2.636359,  -0.103245,  13.668311,  -3.326068, -13.231334,  -0.941305,  -0.301963,  -0.769608, -699.000000, -558.000000, -408.000000, -75.004712, -90.502560, -141.652800,  -0.224940,  -0.589832,   0.391386,  -0.669490, 
30426,   9.464955,  -2.421129,   0.123006,  13.067400,  -3.279439, -13.080472,  -0.947988,  -0.312552,  -0.765577, -702.000000, -561.000000, -406.500000, -75.139520, -90.468008, -141.548064,  -0.224941,  -0.590708,   0.389947,  -0.669553, 
30427,   9.678964,  -2.452966,  -0.064862,  13.670825,  -3.150490, -13.689442,  -0.960298,  -0.323229,  -0.765436, -708.000000, -564.000000, -406.500000, -75.282864, -90.462696, -141.414032,  -0.224972,  -0.591653,   0.388482,  -0.669558, 
30428,   9.651979,  -2.422456,   0.111415,  13.493072,  -3.139690, -15.144601,  -0.947663,  -0.313730,  -0.784305, -702.000000, -562.500000, -412.500000, -75.433560, -90.429712, -141.305616,  -0.225053,  -0.592588,   0.386949,  -0.669593, 
30429,   9.693493,  -2.359465,   0.148948,  14.352434,  -3.308660, -16.495794,  -0.939857,  -0.322060,  -0.781894, -697.500000, -565.500000, -411.000000, -75.603752, -90.357832, -141.230528,  -0.225242,  -0.593552,   0.385259,  -0.669659, 
30430,   9.773288,  -2.320833,   0.174356,  15.745021,  -3.527205, -18.607854,  -0.952867,  -0.338802,  -0.773256, -703.500000, -570.000000, -408.000000, -75.796688, -90.264512, -141.165968,  -0.225514,  -0.594600,   0.383381,  -0.669731, 
30431,   9.659961,  -2.343397,   0.161693,  17.085358,  -3.789230, -20.547202,  -0.953755,  -0.348487,  -0.769873, -703.500000, -573.000000, -406.500000, -76.001904, -90.167736, -141.090688,  -0.225775,  -0.595726,   0.381360,  -0.669808, 
30432,   9.538445,  -2.288598,   0.193874,  18.098632,  -3.929024, -21.339192,  -0.938548,  -0.337359,  -0.770338, -696.000000, -570.000000, -406.500000, -76.214672, -90.068024, -141.006608,  -0.226010,  -0.596904,   0.379230,  -0.669886, 
30433,   9.552370,  -2.326332,   0.117230,  19.247570,  -4.109621, -21.347150,  -0.938906,  -0.341794,  -0.770916, -696.000000, -571.500000, -406.500000, -76.424472, -89.976912, -140.902544,  -0.226153,  -0.598119,   0.377061,  -0.669978, 
30434,   9.629588,  -2.232675,   0.111378,  19.787236,  -4.244280, -21.343598,  -0.948676,  -0.356455,  -0.771676, -700.500000, -576.000000, -406.500000, -76.638392, -89.906344, -140.770432,  -0.226262,  -0.599395,   0.374841,  -0.670047, 
30435,   9.654265,  -2.063839,   0.149447,  20.594608,  -4.384187, -22.251000,  -0.948830,  -0.354463,  -0.757486, -700.500000, -574.500000, -402.000000, -76.874104, -89.824128, -140.643088,  -0.226464,  -0.600747,   0.372462,  -0.670101, 
30436,   9.743354,  -2.182214,   0.056785,  21.644686,  -4.366628, -23.570670,  -0.943922,  -0.363246,  -0.754752, -697.500000, -577.500000, -400.500000, -77.112936, -89.775400, -140.472976,  -0.226607,  -0.602172,   0.370031,  -0.670118, 
30437,   9.599401,  -2.178736,   0.088763,  21.962796,  -4.441877, -24.229926,  -0.945185,  -0.380173,  -0.761599, -697.500000, -583.500000, -402.000000, -77.351360, -89.727856, -140.296256,  -0.226715,  -0.603609,   0.367572,  -0.670145, 
30438,   9.519217,  -2.119142,  -0.005039,  22.684048,  -4.461644, -24.291954,  -0.946057,  -0.387052,  -0.748564, -697.500000, -585.000000, -397.500000, -77.592920, -89.722312, -140.073344,  -0.226788,  -0.605103,   0.365086,  -0.670109, 
30439,   9.495153,  -2.120853,   0.013665,  22.940546,  -4.477136, -23.723712,  -0.944030,  -0.393480,  -0.735853, -696.000000, -586.500000, -393.000000, -77.828440, -89.722136, -139.841328,  -0.226802,  -0.606590,   0.362613,  -0.670092, 
30440,   9.474781,  -2.127589,  -0.132261,  22.879402,  -4.409634, -22.722352,  -0.941132,  -0.393028,  -0.736177, -694.500000, -586.500000, -393.000000, -78.048408, -89.802552, -139.527808,  -0.226680,  -0.608123,   0.360260,  -0.670023, 
30441,   9.543307,  -2.039333,  -0.075034,  22.655038,  -4.369074, -21.845102,  -0.944201,  -0.394294,  -0.731316, -696.000000, -586.500000, -391.500000, -78.262048, -89.832480, -139.266352,  -0.226560,  -0.609565,   0.357917,  -0.670029, 
30442,   9.601206,  -2.050615,  -0.171988,  22.185636,  -4.037745, -21.626812,  -0.951415,  -0.410133,  -0.723325, -699.000000, -591.000000, -388.500000, -78.473224, -89.933368, -138.938240,  -0.226412,  -0.611047,   0.355636,  -0.669944, 
30443,   9.580129,  -1.872501,   0.061091,  21.250480,  -3.882370, -21.234018,  -0.946865,  -0.423351,  -0.721168, -696.000000, -595.500000, -387.000000, -78.687656, -89.931504, -138.718896,  -0.226374,  -0.612396,   0.353311,  -0.669961, 
30444,   9.618521,  -1.874745,  -0.086755,  21.586824,  -3.722591, -21.149148,  -0.947599,  -0.435028,  -0.731976, -696.000000, -600.000000, -390.000000, -78.905304, -89.948688, -138.483712,  -0.226361,  -0.613752,   0.350987,  -0.669938, 
30445,   9.625669,  -1.883637,  -0.087298,  21.423992,  -3.686551, -21.132896,  -0.947786,  -0.438650,  -0.737091, -696.000000, -601.500000, -391.500000, -79.113224, -90.003520, -138.210112,  -0.226271,  -0.615114,   0.348726,  -0.669899, 
30446,   9.514401,  -1.992774,  -0.262300,  21.939578,  -3.587988, -20.759944,  -0.944187,  -0.432133,  -0.745912, -694.500000, -600.000000, -394.500000, -79.307264, -90.110696, -137.883792,  -0.226075,  -0.616482,   0.346557,  -0.669838, 
30447,   9.577326,  -2.125363,  -0.281397,  21.115202,  -3.448575, -19.957172,  -0.942161,  -0.438561,  -0.733201, -693.000000, -601.500000, -390.000000, -79.469224, -90.274608, -137.502512,  -0.225674,  -0.617783,   0.344582,  -0.669768, 
30448,   9.661440,  -1.869466,  -0.088727,  20.385750,  -3.391276, -19.904238,  -0.946289,  -0.450327,  -0.720420, -694.500000, -604.500000, -385.500000, -79.643944, -90.349704, -137.242416,  -0.225581,  -0.618930,   0.342671,  -0.669712, 
30449,   9.676340,  -1.817327,   0.052403,  20.670582,  -3.306782, -20.264156,  -0.949579,  -0.460827,  -0.739978, -696.000000, -609.000000, -391.500000, -79.833472, -90.288088, -137.119232,  -0.225640,  -0.619981,   0.340620,  -0.669774, 
30450,   9.750232,  -1.887943,   0.049889,  20.533366,  -3.244780, -20.573034,  -0.948349,  -0.449512,  -0.752435, -696.000000, -606.000000, -396.000000, -80.013768, -90.235592, -136.960256,  -0.225485,  -0.621090,   0.338477,  -0.669898, 
30451,   9.805217,  -1.643639,   0.114269,  20.237148,  -3.081362, -21.613880,  -0.951589,  -0.451593,  -0.743037, -697.500000, -606.000000, -393.000000, -80.220896, -90.141856, -136.846352,  -0.225526,  -0.622221,   0.336190,  -0.670001, 
30452,   9.872652,  -1.547124,   0.110837,  20.791860,  -3.045734, -23.297444,  -0.947756,  -0.473682,  -0.742035, -694.500000, -613.500000, -391.500000, -80.456744, -90.041152, -136.737712,  -0.225723,  -0.623423,   0.333727,  -0.670045, 
30453,   9.839915,  -1.500603,   0.023149,  21.403480,  -2.968328, -25.097606,  -0.948644,  -0.483367,  -0.738652, -694.500000, -616.500000, -390.000000, -80.714184, -90.006008, -136.557952,  -0.225987,  -0.624762,   0.331141,  -0.669996, 
30454,   9.818210,  -1.612762,  -0.064301,  22.027548,  -2.857577, -26.165994,  -0.950028,  -0.492690,  -0.712005, -694.500000, -618.000000, -381.000000, -80.968760, -90.023520, -136.344960,  -0.226326,  -0.626075,   0.328692,  -0.669866, 
30455,   9.709551,  -1.628162,  -0.055220,  22.275316,  -2.837636, -26.991624,  -0.945667,  -0.509529,  -0.714962, -691.500000, -624.000000, -381.000000, -81.220832, -90.025808, -136.118784,  -0.226489,  -0.627433,   0.326088,  -0.669806, 
30456,   9.701491,  -1.522688,   0.055021,  22.487786,  -2.832998, -27.344088,  -0.939512,  -0.504191,  -0.715033, -688.500000, -622.500000, -381.000000, -81.476800, -89.984904, -135.983040,  -0.226969,  -0.628629,   0.323704,  -0.669688, 
30457,   9.656801,  -1.554839,   0.034141,  23.109746,  -2.724918, -27.189300,  -0.936581,  -0.498126,  -0.696052, -687.000000, -619.500000, -375.000000, -81.731672, -89.897152, -135.883504,  -0.227392,  -0.629795,   0.321243,  -0.669620, 
30458,   9.743769,  -1.512294,   0.022818,  22.870904,  -2.634704, -27.050114,  -0.934400,  -0.506545,  -0.697531, -685.500000, -622.500000, -375.000000, -81.978840, -89.841592, -135.750800,  -0.227751,  -0.630963,   0.318826,  -0.669537, 
30459,   9.672652,  -1.352877,   0.073938,  23.050390,  -2.589612, -26.848134,  -0.932936,  -0.523836,  -0.700165, -684.000000, -628.500000, -375.000000, -82.239648, -89.747568, -135.654336,  -0.228189,  -0.632141,   0.316308,  -0.669461, 
30460,   9.644875,  -1.287037,   0.002300,  23.664696,  -2.514170, -26.312050,  -0.936926,  -0.540401,  -0.711226, -685.500000, -634.500000, -378.000000, -82.504808, -89.698392, -135.467024,  -0.228369,  -0.633492,   0.313525,  -0.669435, 
30461,   9.636342,  -1.307559,  -0.065580,  24.020682,  -2.399168, -25.693978,  -0.943439,  -0.550174,  -0.711733, -688.500000, -637.500000, -378.000000, -82.757472, -89.676832, -135.248384,  -0.228448,  -0.634834,   0.310797,  -0.669427, 
30462,   9.701038,  -1.201508,  -0.071189,  23.497898,  -2.207628, -25.194466,  -0.953021,  -0.561214,  -0.707379, -693.000000, -640.500000, -376.500000, -83.008496, -89.726488, -134.959312,  -0.228501,  -0.636213,   0.308100,  -0.669373, 
30463,   9.754062,  -1.243400,  -0.185643,  23.267616,  -2.029625, -25.086502,  -0.945182,  -0.563933,  -0.685663, -688.500000, -640.500000, -369.000000, -83.250928, -89.814032, -134.636368,  -0.228511,  -0.637545,   0.305465,  -0.669281, 
30464,   9.841414,  -1.178898,  -0.106849,  21.929030,  -1.897150, -25.492460,  -0.933932,  -0.563756,  -0.677884, -682.500000, -640.500000, -366.000000, -83.495104, -89.971584, -134.251552,  -0.228565,  -0.638902,   0.302882,  -0.669139, 
30465,   9.813104,  -1.159779,  -0.157998,  21.451906,  -1.746836, -26.276380,  -0.933607,  -0.564933,  -0.696612, -682.500000, -642.000000, -372.000000, -83.748880, -90.105808, -133.899960,  -0.228744,  -0.640227,   0.300287,  -0.668983, 
30466,   9.931097,  -1.150355,  -0.116128,  20.516516,  -1.476195, -27.318490,  -0.934649,  -0.572626,  -0.679039, -682.500000, -643.500000, -366.000000, -84.008288, -90.294968, -133.500272,  -0.228986,  -0.641567,   0.297705,  -0.668778, 
30467,   9.901804,  -1.153060,  -0.150840,  19.759934,  -1.328489, -28.741812,  -0.937873,  -0.571901,  -0.659988, -684.000000, -642.000000, -360.000000, -84.268480, -90.391368, -133.201464,  -0.229304,  -0.642809,   0.295130,  -0.668612, 
30468,   9.730115,  -1.049272,  -0.083984,  18.432204,  -1.094175, -29.330536,  -0.938077,  -0.578328,  -0.674755, -684.000000, -645.000000, -364.500000, -84.546272, -90.543888, -132.858080,  -0.229782,  -0.644077,   0.292525,  -0.668359, 
30469,   9.649145,  -0.950023,  -0.104192,  17.728764,  -0.868615, -28.442714,  -0.942425,  -0.599328,  -0.686394, -685.500000, -652.500000, -367.500000, -84.820784, -90.612464, -132.607592,  -0.230313,  -0.645253,   0.289964,  -0.668148, 
30470,   9.651402,  -0.873390,  -0.148975,  17.050408,  -0.723647, -27.064810,  -0.945853,  -0.605030,  -0.682109, -687.000000, -654.000000, -366.000000, -85.091888, -90.791000, -132.254728,  -0.230854,  -0.646453,   0.287485,  -0.667888, 
30471,   9.714696,  -0.897714,  -0.094225,  16.293049,  -0.603544, -25.947376,  -0.940073,  -0.606933,  -0.692410, -684.000000, -655.500000, -369.000000, -85.344912, -90.892136, -131.986248,  -0.231343,  -0.647529,   0.285121,  -0.667686, 
30472,   9.791178,  -0.786636,  -0.215547,  15.294203,  -0.546634, -25.704016,  -0.938096,  -0.621780,  -0.708657, -682.500000, -661.500000, -373.500000, -85.596736, -91.221104, -131.498768,  -0.231844,  -0.648674,   0.282849,  -0.667378, 
30473,   9.922212,  -0.815936,  -0.034196,  13.531572,  -0.278265, -26.206996,  -0.936086,  -0.631014,  -0.705598, -681.000000, -664.500000, -372.000000, -85.843768, -91.332440, -131.242504,  -0.232437,  -0.649661,   0.280639,  -0.667163, 
30474,  10.011276,  -0.678499,  -0.093045,  12.376250,  -0.159441, -27.853768,  -0.929932,  -0.625675,  -0.705669, -678.000000, -663.000000, -372.000000, -86.110584, -91.467144, -130.978000,  -0.233229,  -0.650644,   0.278395,  -0.666865, 
30475,  10.084937,  -0.455092,   0.045753,  11.524044,   0.115782, -30.094924,  -0.924820,  -0.628031,  -0.688167, -675.000000, -663.000000, -366.000000, -86.417240, -91.546024, -130.779080,  -0.234323,  -0.651659,   0.275965,  -0.666501, 
30476,  10.227820,  -0.084426,   0.289038,  12.653352,   0.099658, -32.754570,  -0.922622,  -0.633644,  -0.679993, -673.500000, -664.500000, -363.000000, -86.780960, -91.329752, -130.875904,  -0.235792,  -0.652690,   0.273171,  -0.666127, 
30477,  10.240371,  -0.311167,   0.166223,  12.729574,   0.177121, -36.729600,  -0.923543,  -0.648942,  -0.695916, -673.500000, -670.500000, -367.500000, -87.139056, -91.494728, -130.581160,  -0.237123,  -0.653852,   0.270393,  -0.665661, 
30478,  10.120465,  -0.347005,  -0.002301,  12.830162,   0.249660, -39.912480,  -0.913727,  -0.666507,  -0.690447, -667.500000, -676.500000, -364.500000, -87.522824, -91.755848, -130.191024,  -0.238595,  -0.655043,   0.267459,  -0.665104, 
30479,   9.993686,  -0.341915,   0.078790,  13.239660,   0.441364, -42.263056,  -0.910642,  -0.662434,  -0.685656, -666.000000, -675.000000, -363.000000, -87.937592, -91.797848, -130.017776,  -0.240263,  -0.656240,   0.264311,  -0.664572, 
30480,   9.883722,  -0.242869,   0.125251,  13.586183,   0.495381, -43.729076,  -0.913556,  -0.665692,  -0.694984, -667.500000, -676.500000, -366.000000, -88.368528, -91.466480, -130.214368,  -0.242034,  -0.657417,   0.261027,  -0.664096, 
30481,   9.778889,  -0.137217,   0.103296,  14.179754,   0.619085, -43.624616,  -0.918385,  -0.683523,  -0.673705, -669.000000, -681.000000, -358.500000, -88.813048, -91.094920, -130.446456,  -0.243841,  -0.658624,   0.257633,  -0.663556, 
30482,   9.699512,  -0.137935,   0.027162,  14.856519,   0.677538, -42.319380,  -0.922325,  -0.691668,  -0.655809, -670.500000, -682.500000, -352.500000, -89.239984, -90.519272, -130.876752,  -0.245503,  -0.659808,   0.254307,  -0.663043, 
30483,   9.775904,   0.043738,   0.040249,  15.681793,   0.865343, -41.749960,  -0.905842,  -0.701451,  -0.664023, -661.500000, -687.000000, -354.000000, -89.674944, -88.536824, -132.706560,  -0.247172,  -0.661020,   0.250889,  -0.662529, 
30484,   9.708903,  -0.183795,  -0.118569,  16.256834,   0.938276, -41.141832,  -0.907618,  -0.720822,  -0.657258, -661.500000, -693.000000, -351.000000, -89.900008,  87.289088,  51.629540,   0.248685,   0.662323,  -0.247510,   0.661945, 
30485,   9.802541,  -0.068542,  -0.016284,  16.840344,   1.075724, -40.088604,  -0.907805,  -0.724443,  -0.662373, -661.500000, -694.500000, -352.500000, -89.509816,  89.189968,  49.894280,   0.249979,   0.663484,  -0.244282,   0.661450, 
30486,   9.765820,  -0.186645,   0.018771,  17.139894,   1.050620, -39.641908,  -0.901309,  -0.717476,  -0.671518, -658.500000, -693.000000, -355.500000, -89.154888,  88.518464,  50.736808,   0.251078,   0.664529,  -0.241210,   0.661152, 
30487,   9.822318,   0.256778,   0.093855,  17.339286,   1.282674, -39.400608,  -0.903335,  -0.711048,  -0.684229, -660.000000, -691.500000, -360.000000, -88.768056,  88.282736,  51.145188,   0.252341,   0.665604,  -0.237929,   0.660762, 
30488,   9.830125,   0.059894,   0.131549,  17.983514,   1.289769, -39.463000,  -0.905128,  -0.733225,  -0.687117, -660.000000, -699.000000, -360.000000, -88.392224,  87.675480,  51.928940,   0.253547,   0.666582,  -0.234663,   0.660493, 
30489,   9.789682,   0.130276,  -0.130146,  18.122256,   1.441140, -39.371760,  -0.904535,  -0.757395,  -0.676716, -658.500000, -706.500000, -355.500000, -88.023952,  88.084816,  51.700856,   0.254622,   0.667684,  -0.231456,   0.660071, 
30490,   9.800223,   0.337011,  -0.103369,  17.925716,   1.621944, -38.892044,  -0.902354,  -0.765814,  -0.678195, -657.000000, -709.500000, -355.500000, -87.636200,  88.484408,  51.482416,   0.255807,   0.668853,  -0.228145,   0.659597, 
30491,   9.791156,   0.408615,  -0.138208,  17.660664,   1.774841, -38.683384,  -0.897959,  -0.777041,  -0.661848, -654.000000, -712.500000, -349.500000, -87.254624,  88.815184,  51.330464,   0.256963,   0.670000,  -0.224882,   0.659115, 
30492,   9.779548,   0.600455,   0.002295,  17.068294,   1.812421, -38.558696,  -0.896479,  -0.791525,  -0.654829, -652.500000, -717.000000, -346.500000, -86.861752,  88.935512,  51.385028,   0.258215,   0.671088,  -0.221552,   0.658625, 
30493,   9.698399,   0.582991,   0.037088,  16.707037,   1.906755, -37.664596,  -0.890170,  -0.788178,  -0.669090, -649.500000, -717.000000, -351.000000, -86.483592,  88.961048,  51.529320,   0.259421,   0.672106,  -0.218327,   0.658183, 
30494,   9.666735,   0.623256,   0.062256,  16.671017,   1.966987, -36.332368,  -0.887443,  -0.788541,  -0.664876, -648.000000, -717.000000, -349.500000, -86.118088,  88.900488,  51.757584,   0.260580,   0.673060,  -0.215177,   0.657806, 
30495,   9.580132,   0.703923,   0.089994,  17.330882,   2.125464, -34.607804,  -0.891571,  -0.800307,  -0.652094, -649.500000, -720.000000, -345.000000, -85.760440,  88.760336,  52.067080,   0.261701,   0.673961,  -0.212050,   0.657496, 
30496,   9.641016,   0.870695,   0.205643,  18.195406,   2.168713, -32.708976,  -0.892475,  -0.812799,  -0.658365, -649.500000, -724.500000, -346.500000, -85.417224,  88.509016,  52.495808,   0.262697,   0.674740,  -0.208926,   0.657262, 
30497,   9.722009,   1.026324,   0.232320,  19.759612,   2.454311, -31.816378,  -0.887413,  -0.823573,  -0.669820, -646.500000, -729.000000, -349.500000, -85.080720,  88.195968,  52.998772,   0.263600,   0.675474,  -0.205751,   0.657125, 
30498,   9.755111,   1.068114,   0.249710,  21.591114,   2.690092, -31.852926,  -0.881633,  -0.825477,  -0.680121, -643.500000, -730.500000, -352.500000, -84.737576,  87.915528,  53.485652,   0.264453,   0.676249,  -0.202441,   0.657036, 
30499,   9.808373,   1.277108,   0.239627,  23.321536,   3.066717, -32.227512,  -0.882472,  -0.826743,  -0.647781, -643.500000, -729.000000, -342.000000, -84.384344,  87.665712,  53.959756,   0.265258,   0.677043,  -0.198958,   0.656959, 
30500,   9.741470,   1.321695,   0.242109,  24.810418,   3.355627, -32.467068,  -0.871751,  -0.831816,  -0.636042, -637.500000, -730.500000, -337.500000, -84.017744,  87.519576,  54.347004,   0.266025,   0.677905,  -0.195303,   0.656841, 
30501,   9.645054,   1.546096,   0.217347,  25.379368,   3.622526, -32.203666,  -0.860518,  -0.834445,  -0.637915, -631.500000, -732.000000, -337.500000, -83.649824,  87.485544,  54.633512,   0.266719,   0.678841,  -0.191590,   0.656692, 
30502,   9.824314,   1.520047,   0.170272,  25.920844,   3.702307, -32.013524,  -0.861610,  -0.850559,  -0.649300, -631.500000, -738.000000, -340.500000, -83.282976,  87.530864,  54.847356,   0.267356,   0.679826,  -0.187855,   0.656515, 
30503,   9.833066,   1.552305,   0.035014,  26.021016,   3.844033, -32.864728,  -0.867610,  -0.857889,  -0.663420, -634.500000, -741.000000, -345.000000, -82.917040,  87.618696,  55.020748,   0.267960,   0.680817,  -0.184116,   0.656301, 
30504,   9.829551,   1.620706,   0.051756,  25.721730,   4.011253, -34.325216,  -0.865412,  -0.863502,  -0.655246, -633.000000, -742.500000, -342.000000, -82.535176,  87.717960,  55.181560,   0.268653,   0.681809,  -0.180283,   0.656021, 
30505,   9.867030,   1.621000,   0.023773,  25.464584,   4.194175, -35.788824,  -0.863711,  -0.868752,  -0.623808, -631.500000, -742.500000, -331.500000, -82.147024,  87.856904,  55.301256,   0.269383,   0.682835,  -0.176429,   0.655693, 
30506,   9.756013,   1.793172,  -0.059034,  25.300910,   4.471715, -36.680168,  -0.859691,  -0.887220,  -0.617691, -628.500000, -748.500000, -328.500000, -81.740176,  88.100672,  55.316284,   0.270194,   0.683977,  -0.172488,   0.655235, 
30507,   9.756598,   1.684500,   0.013551,  25.402564,   4.548560, -37.655316,  -0.857869,  -0.900075,  -0.619747, -627.000000, -753.000000, -328.500000, -81.339392,  88.220272,  55.455064,   0.270994,   0.684988,  -0.168552,   0.654871, 
30508,   9.855227,   1.788529,  -0.002823,  25.461192,   4.701246, -38.702104,  -0.852073,  -0.899172,  -0.620395, -624.000000, -753.000000, -328.500000, -80.926824,  88.358920,  55.575972,   0.271847,   0.686018,  -0.164540,   0.654453, 
30509,   9.794600,   1.857907,   0.177100,  25.899682,   4.977186, -40.218288,  -0.849704,  -0.903970,  -0.616759, -622.500000, -754.500000, -327.000000, -80.507664,  88.329688,  55.864392,   0.272787,   0.686887,  -0.160442,   0.654178, 
30510,   9.727153,   1.935352,   0.130289,  26.640308,   5.415492, -41.156764,  -0.852790,  -0.908043,  -0.621550, -624.000000, -756.000000, -328.500000, -80.079616,  88.371112,  56.090292,   0.273713,   0.687832,  -0.156257,   0.653840, 
30511,   9.691034,   2.022509,   0.300244,  27.374196,   5.614301, -41.768864,  -0.843754,  -0.905059,  -0.631597, -619.500000, -756.000000, -331.500000, -79.640704,  88.258096,  56.475484,   0.274709,   0.688582,  -0.151920,   0.653625, 
30512,   9.660513,   2.190805,   0.184852,  27.755458,   5.921766, -42.554068,  -0.836665,  -0.922262,  -0.630342, -615.000000, -762.000000, -330.000000, -79.180952,  88.226536,  56.787124,   0.275759,   0.689429,  -0.147428,   0.653309, 
30513,   9.641208,   2.228200,   0.243356,  28.085166,   6.205014, -43.460176,  -0.832474,  -0.939915,  -0.628762, -612.000000, -768.000000, -328.500000, -78.707272,  88.146088,  57.149616,   0.276898,   0.690216,  -0.142820,   0.653038, 
30514,   9.590914,   2.498173,   0.292543,  28.331338,   6.607313, -43.928008,  -0.828625,  -0.959198,  -0.618108, -609.000000, -774.000000, -324.000000, -78.226200,  88.097400,  57.484424,   0.278040,   0.691004,  -0.138143,   0.652715, 
30515,   9.530878,   2.409672,   0.348625,  29.490684,   6.973570, -44.073120,  -0.828608,  -0.956391,  -0.608455, -609.000000, -772.500000, -321.000000, -77.734472,  87.964400,  57.908472,   0.279246,   0.691667,  -0.133336,   0.652494, 
30516,   9.390787,   2.677914,   0.359042,  30.719464,   7.535102, -44.076680,  -0.827549,  -0.945891,  -0.616375, -609.000000, -769.500000, -324.000000, -77.238040,  87.871504,  58.304584,   0.280398,   0.692358,  -0.128432,   0.652254, 
30517,   9.452269,   2.774805,   0.484157,  32.608460,   8.203197, -43.429000,  -0.825556,  -0.957931,  -0.622969, -607.500000, -774.000000, -325.500000, -76.731656,  87.718952,  58.775444,   0.281540,   0.692942,  -0.123348,   0.652114, 
30518,   9.420674,   2.714572,   0.283159,  34.698868,   8.927731, -43.059484,  -0.815210,  -0.970246,  -0.621460, -601.500000, -778.500000, -324.000000, -76.254072,  87.647944,  59.187604,   0.282363,   0.693604,  -0.118325,   0.652004, 
30519,   9.319546,   2.992224,   0.515316,  37.065716,   9.801332, -42.794508,  -0.807763,  -0.983013,  -0.619627, -597.000000, -783.000000, -322.500000, -75.785344,  87.610448,  59.590576,   0.282980,   0.694278,  -0.113214,   0.651919, 
30520,   9.443024,   2.898778,   0.323582,  39.412696,  10.634733, -42.864088,  -0.814976,  -0.998851,  -0.611637, -600.000000, -787.500000, -319.500000, -75.304136,  87.563352,  60.028916,   0.283524,   0.694927,  -0.107859,   0.651886, 
30521,   9.536526,   3.265164,   0.434234,  41.337548,  11.652111, -43.874964,  -0.806983,  -1.003561,  -0.604111, -595.500000, -789.000000, -316.500000, -74.799128,  87.571984,  60.434928,   0.284058,   0.695676,  -0.102234,   0.651794, 
30522,   9.601971,   2.905187,   0.026738,  43.117624,  12.266410, -45.692360,  -0.804427,  -1.004739,  -0.595360, -594.000000, -789.000000, -313.500000, -74.312544,  87.615720,  60.827644,   0.284338,   0.696423,  -0.096595,   0.651717, 
30523,   9.485642,   3.269374,   0.258644,  43.953908,  13.104681, -47.819820,  -0.800390,  -1.020401,  -0.579591, -591.000000, -793.500000, -307.500000, -73.784832,  87.668880,  61.224076,   0.284773,   0.697176,  -0.090621,   0.651558, 
30524,   9.384168,   2.912779,   0.231677,  44.903872,  13.501479, -48.661960,  -0.795995,  -1.031626,  -0.563244, -588.000000, -796.500000, -301.500000, -73.269376,  87.645440,  61.705688,   0.285128,   0.697776,  -0.084638,   0.651600, 
30525,   9.285703,   3.283212,   0.314868,  45.097912,  14.247545, -49.581656,  -0.799765,  -1.038957,  -0.549885, -589.500000, -798.000000, -297.000000, -72.737832,  87.702032,  62.116948,   0.285477,   0.698457,  -0.078520,   0.651466, 
30526,   9.519923,   3.230433,   0.398152,  45.957148,  14.711022, -49.986532,  -0.788873,  -1.043215,  -0.542683, -583.500000, -799.500000, -294.000000, -72.207720,  87.659168,  62.629204,   0.285848,   0.698907,  -0.072357,   0.651519, 
30527,   9.371115,   3.108707,   0.189484,  46.923252,  15.586418, -51.363436,  -0.771860,  -1.047748,  -0.554857, -574.500000, -802.500000, -297.000000, -71.694576,  87.710912,  63.060212,   0.286017,   0.699506,  -0.066254,   0.651488, 
30528,   9.230879,   3.105930,   0.293224,  48.460100,  16.518900, -51.945916,  -0.763012,  -1.048386,  -0.570019, -570.000000, -804.000000, -301.500000, -71.157744,  87.674784,  63.590772,   0.286277,   0.699867,  -0.059890,   0.651573, 
30529,   9.201801,   3.424058,   0.176896,  49.270380,  17.437112, -51.776600,  -0.754864,  -1.055088,  -0.576684, -565.500000, -807.000000, -303.000000, -70.631648,  87.755256,  64.026392,   0.286307,   0.700423,  -0.053506,   0.651515, 
30530,   9.134974,   3.181705,   0.112560,  50.088180,  18.049634, -51.074004,  -0.748817,  -1.079983,  -0.557855, -561.000000, -814.500000, -295.500000, -70.119200,  87.807992,  64.498152,   0.286226,   0.700884,  -0.047142,   0.651568, 
30531,   9.082709,   3.277303,  -0.019370,  49.565856,  18.477044, -49.479532,  -0.751261,  -1.099806,  -0.523288, -561.000000, -819.000000, -283.500000, -69.626416,  87.912208,  64.924332,   0.285969,   0.701384,  -0.040882,   0.651547, 
30532,   9.306787,   3.317392,   0.178262,  48.663524,  18.490398, -49.010568,  -0.752695,  -1.117548,  -0.525598, -561.000000, -825.000000, -283.500000, -69.143360,  87.913312,  65.441084,   0.285775,   0.701616,  -0.034713,   0.651740, 
30533,   9.157397,   3.362658,  -0.004591,  46.961996,  18.342364, -49.153788,  -0.746010,  -1.106960,  -0.529629, -558.000000, -822.000000, -285.000000, -68.669552,  87.992136,  65.874100,   0.285530,   0.701973,  -0.028671,   0.651770, 
30534,   9.115755,   3.573205,   0.310389,  44.967084,  18.080260, -49.119500,  -0.742754,  -1.102073,  -0.529375, -556.500000, -820.500000, -285.000000, -68.181792,  88.002304,  66.353012,   0.285517,   0.702111,  -0.022650,   0.651850, 
30535,   9.137171,   3.460684,   0.076767,  43.151064,  17.739634, -48.701704,  -0.738376,  -1.116105,  -0.522681, -553.500000, -825.000000, -282.000000, -67.722744,  88.068400,  66.761788,   0.285400,   0.702338,  -0.016918,   0.651834, 
30536,   8.959610,   3.450462,   0.240682,  41.635948,  17.589760, -47.372104,  -0.732158,  -1.140186,  -0.508390, -549.000000, -832.500000, -276.000000, -67.266168,  88.078928,  67.204824,   0.285414,   0.702392,  -0.011308,   0.651901, 
30537,   8.903679,   3.458779,   0.021320,  40.119292,  17.380450, -45.486584,  -0.722888,  -1.165807,  -0.508614, -543.000000, -841.500000, -274.500000, -66.835244,  88.127760,  67.598744,   0.285325,   0.702494,  -0.005940,   0.651900, 
30538,   8.930952,   3.592647,   0.109549,  38.447108,  17.055300, -43.709276,  -0.713990,  -1.158025,  -0.494818, -538.500000, -838.500000, -270.000000, -66.422324,  88.183912,  67.970056,   0.285215,   0.702578,  -0.000780,   0.651877, 
30539,   9.062274,   3.382825,  -0.155188,  36.738212,  16.508356, -41.831872,  -0.713786,  -1.151598,  -0.480051, -538.500000, -835.500000, -265.500000, -66.052512,  88.274608,  68.294360,   0.284920,   0.702737,   0.004018,   0.651840, 
30540,   8.904019,   3.667909,   0.053334,  34.177220,  15.804430, -39.722964,  -0.712664,  -1.170517,  -0.473610, -537.000000, -841.500000, -262.500000, -65.690444,  88.342648,  68.616872,   0.284725,   0.702804,   0.008629,   0.651801, 
30541,   8.939029,   3.491907,  -0.074589,  32.036308,  14.982488, -37.890020,  -0.699079,  -1.180752,  -0.481500, -529.500000, -846.000000, -264.000000, -65.361176,  88.384936,  68.939168,   0.284506,   0.702801,   0.012888,   0.651844, 
30542,   9.040219,   3.674501,   0.024846,  29.311288,  14.043286, -36.639988,  -0.694016,  -1.191527,  -0.492955, -526.500000, -850.500000, -267.000000, -65.041664,  88.426216,  69.236368,   0.284377,   0.702768,   0.016926,   0.651834, 
30543,   9.019411,   3.592107,  -0.110512,  27.179896,  13.080972, -36.167088,  -0.692348,  -1.202389,  -0.480821, -525.000000, -853.500000, -262.500000, -64.744048,  88.461504,  69.512848,   0.284281,   0.702721,   0.020668,   0.651831, 
30544,   8.928164,   3.784887,   0.015233,  24.879546,  12.486271, -35.202164,  -0.686022,  -1.196236,  -0.485430, -522.000000, -852.000000, -264.000000, -64.442292,  88.516592,  69.748448,   0.284316,   0.702704,   0.024295,   0.651701, 
30545,   8.844594,   3.829000,  -0.008375,  23.290796,  11.847611, -33.812428,  -0.683467,  -1.197414,  -0.476678, -520.500000, -852.000000, -261.000000, -64.151976,  88.539488,  69.993432,   0.284431,   0.702596,   0.027726,   0.651629, 
30546,   8.773742,   3.808592,  -0.001835,  21.639622,  11.115396, -31.606974,  -0.676003,  -1.207374,  -0.465193, -516.000000, -855.000000, -256.500000, -63.874268,  88.582096,  70.203960,   0.284552,   0.702544,   0.030978,   0.651500, 
30547,   8.695232,   3.953035,   0.032497,  20.454584,  10.631276, -29.383268,  -0.680660,  -1.224390,  -0.448452, -517.500000, -859.500000, -250.500000, -63.609876,  88.611624,  70.410744,   0.284697,   0.702450,   0.034051,   0.651392, 
30548,   8.737754,   3.883863,  -0.042773,  19.293234,  10.016002, -26.700380,  -0.684446,  -1.234527,  -0.444745, -519.000000, -862.500000, -249.000000, -63.378812,  88.650848,  70.596672,   0.284711,   0.702387,   0.036843,   0.651301, 
30549,   8.623481,   4.110493,   0.043873,  18.445862,   9.843428, -24.284658,  -0.671812,  -1.225027,  -0.463614, -513.000000, -861.000000, -255.000000, -63.152416,  88.679280,  70.780808,   0.284773,   0.702285,   0.039533,   0.651215, 
30550,   8.799268,   4.145832,   0.041666,  17.882042,   9.577977, -22.511482,  -0.656246,  -1.209464,  -0.463501, -505.500000, -856.500000, -255.000000, -62.952840,  88.698392,  70.966728,   0.284729,   0.702163,   0.042015,   0.651196, 
30551,   8.809904,   4.379731,   0.077905,  17.243896,   9.459420, -21.624212,  -0.651697,  -1.222681,  -0.461344, -502.500000, -861.000000, -253.500000, -62.758020,  88.718040,  71.146528,   0.284690,   0.702042,   0.044432,   0.651175, 
30552,   8.912548,   4.248231,   0.022514,  16.890086,   9.263919, -21.744724,  -0.659098,  -1.242141,  -0.458469, -505.500000, -867.000000, -252.000000, -62.573676,  88.742232,  71.317504,   0.284616,   0.701938,   0.046756,   0.651158, 
30553,   8.871425,   4.394390,   0.005783,  16.607767,   9.178819, -22.863324,  -0.661825,  -1.241778,  -0.462682, -507.000000, -867.000000, -253.500000, -62.376200,  88.776480,  71.475832,   0.284628,   0.701853,   0.049140,   0.651075, 
30554,   8.784052,   4.426635,   0.015777,  16.514984,   9.247189, -23.454930,  -0.653831,  -1.246488,  -0.455157, -502.500000, -868.500000, -250.500000, -62.162960,  88.791216,  71.649304,   0.284765,   0.701702,   0.051604,   0.651006, 
30555,   8.667326,   4.476106,   0.042678,  16.092327,   9.088977, -23.270930,  -0.641164,  -1.231376,  -0.454720, -496.500000, -864.000000, -250.500000, -61.949036,  88.805256,  71.821000,   0.284919,   0.701539,   0.054056,   0.650926, 
30556,   8.618247,   4.455105,   0.003347,  15.702888,   8.879169, -22.721964,  -0.640105,  -1.220875,  -0.462640, -496.500000, -861.000000, -253.500000, -61.733664,  88.827664,  71.982176,   0.285084,   0.701380,   0.056499,   0.650801, 
30557,   8.622120,   4.642377,   0.024159,  15.462546,   9.016918, -21.982412,  -0.650029,  -1.233545,  -0.449211, -501.000000, -864.000000, -249.000000, -61.516844,  88.868024,  72.124112,   0.285256,   0.701266,   0.058933,   0.650613, 
30558,   8.781219,   4.622143,   0.071954,  15.591744,   9.052080, -22.006472,  -0.638249,  -1.228117,  -0.445392, -495.000000, -862.500000, -247.500000, -61.316276,  88.862408,  72.306088,   0.285392,   0.701025,   0.061251,   0.650590, 
30559,   8.709532,   4.841875,   0.279308,  15.767899,   9.322250, -23.026680,  -0.636239,  -1.237352,  -0.442333, -493.500000, -865.500000, -246.000000, -61.094224,  88.829624,  72.514096,   0.285669,   0.700683,   0.063706,   0.650600, 
30560,   8.685084,   4.783428,   0.197053,  16.537411,   9.634274, -24.294896,  -0.644340,  -1.262875,  -0.430960, -496.500000, -873.000000, -241.500000, -60.859332,  88.780928,  72.741448,   0.286009,   0.700278,   0.066268,   0.650645, 
30561,   8.621688,   4.969364,   0.235068,  16.810084,  10.062874, -25.604226,  -0.643420,  -1.247577,  -0.415038, -496.500000, -867.000000, -237.000000, -60.604804,  88.768688,  72.942784,   0.286387,   0.699958,   0.068998,   0.650563, 
30562,   8.605495,   4.907279,   0.149331,  17.327718,  10.411098, -26.670526,  -0.633854,  -1.239344,  -0.429045, -492.000000, -865.500000, -241.500000, -60.333732,  88.746832,  73.157888,   0.286836,   0.699577,   0.071858,   0.650477, 
30563,   8.535792,   4.888513,   0.047880,  17.566716,  10.719202, -27.394438,  -0.626423,  -1.254917,  -0.436864, -487.500000, -871.500000, -243.000000, -60.065708,  88.762888,  73.344608,   0.287191,   0.699281,   0.074737,   0.650287, 
30564,   8.447952,   4.980531,   0.082108,  17.431776,  10.738198, -27.607358,  -0.627124,  -1.260981,  -0.428367, -487.500000, -873.000000, -240.000000, -59.788156,  88.777584,  73.533520,   0.287597,   0.698967,   0.077680,   0.650086, 
30565,   8.522974,   4.967141,   0.056691,  17.490162,  10.781295, -27.463802,  -0.618430,  -1.259626,  -0.429339, -483.000000, -873.000000, -240.000000, -59.517100,  88.781640,  73.732272,   0.287978,   0.698620,   0.080582,   0.649936, 
30566,   8.509810,   5.086930,   0.071625,  17.481858,  11.083398, -28.118982,  -0.607384,  -1.265877,  -0.436327, -477.000000, -876.000000, -241.500000, -59.239860,  88.803752,  73.916608,   0.288367,   0.698317,   0.083536,   0.649727, 
30567,   8.544407,   5.102867,   0.112418,  17.850506,  11.396640, -28.745636,  -0.607742,  -1.270312,  -0.436905, -477.000000, -877.500000, -241.500000, -58.961444,  88.795784,  74.128872,   0.288788,   0.697904,   0.086495,   0.649606, 
30568,   8.449514,   5.075078,   0.080610,  18.062218,  11.644423, -29.487354,  -0.610265,  -1.263522,  -0.426351, -478.500000, -874.500000, -238.500000, -58.678024,  88.796760,  74.337952,   0.289198,   0.697492,   0.089514,   0.649453, 
30569,   8.450230,   5.017713,   0.031986,  18.268360,  11.772361, -29.891852,  -0.606805,  -1.252207,  -0.411330, -477.000000, -870.000000, -234.000000, -58.393404,  88.803120,  74.545624,   0.289591,   0.697086,   0.092560,   0.649292, 
30570,   8.340352,   5.154905,   0.043130,  17.866016,  11.825331, -29.764802,  -0.596459,  -1.264523,  -0.409821, -471.000000, -874.500000, -232.500000, -58.100832,  88.829744,  74.735896,   0.290001,   0.696718,   0.095662,   0.649044, 
30571,   8.390236,   5.040924,   0.074047,  17.309424,  11.324826, -29.118398,  -0.586472,  -1.281273,  -0.408889, -465.000000, -880.500000, -231.000000, -57.826800,  88.843912,  74.930872,   0.290359,   0.696326,   0.098607,   0.648867, 
30572,   8.252839,   5.182677,  -0.011536,  16.136930,  10.846704, -28.625368,  -0.589183,  -1.278103,  -0.403450, -466.500000, -879.000000, -229.500000, -57.545652,  88.883944,  75.094544,   0.290775,   0.696007,   0.101549,   0.648567, 
30573,   8.239342,   5.175102,   0.065931,  14.950764,  10.146189, -27.555276,  -0.581206,  -1.285620,  -0.405577, -462.000000, -882.000000, -229.500000, -57.276324,  88.909888,  75.257016,   0.291214,   0.695648,   0.104330,   0.648297, 
30574,   8.281158,   5.239430,  -0.085778,  13.999357,   9.636708, -26.519822,  -0.578650,  -1.286798,  -0.396826, -460.500000, -882.000000, -226.500000, -57.020212,  88.956032,  75.390856,   0.291619,   0.695376,   0.106969,   0.647970, 
30575,   8.409921,   5.077282,  -0.135879,  12.902981,   9.089811, -26.299866,  -0.580489,  -1.276749,  -0.404422, -462.000000, -879.000000, -229.500000, -56.784012,  89.021128,  75.497272,   0.291954,   0.695195,   0.109426,   0.647604, 
30576,   8.235607,   5.294008,   0.040345,  12.188508,   8.741119, -26.192090,  -0.576281,  -1.291596,  -0.393190, -459.000000, -883.500000, -225.000000, -56.549400,  89.055032,  75.619624,   0.292381,   0.694920,   0.111794,   0.647314, 
30577,   8.225768,   5.120998,  -0.045747,  11.854446,   8.333134, -25.132556,  -0.589103,  -1.304717,  -0.379437, -465.000000, -886.500000, -220.500000, -56.326812,  89.096328,  75.730184,   0.292763,   0.694685,   0.114057,   0.647017, 
30578,   8.000238,   5.290805,   0.016556,  11.215820,   8.141472, -23.266060,  -0.579538,  -1.296483,  -0.393444, -460.500000, -885.000000, -225.000000, -56.098280,  89.122056,  75.848008,   0.293229,   0.694384,   0.116311,   0.646730, 
30579,   8.079578,   5.340617,   0.067804,  10.863517,   7.822376, -21.062164,  -0.565748,  -1.300290,  -0.386566, -453.000000, -886.500000, -222.000000, -55.884140,  89.120576,  75.982928,   0.293680,   0.694000,   0.118425,   0.646545, 
30580,   8.082297,   5.494294,   0.008388,  10.142365,   7.416432, -20.165446,  -0.567742,  -1.288250,  -0.379972, -454.500000, -882.000000, -220.500000, -55.686836,  89.139944,  76.094448,   0.294041,   0.693705,   0.120411,   0.646317, 
30581,   8.092653,   5.558014,   0.075722,   9.376554,   6.976526, -20.136252,  -0.567946,  -1.294677,  -0.394740, -454.500000, -885.000000, -225.000000, -55.487380,  89.145984,  76.209056,   0.294478,   0.693368,   0.122352,   0.646108, 
30582,   8.012681,   5.603368,  -0.023006,   8.883040,   6.676542, -20.068692,  -0.565748,  -1.300290,  -0.386566, -453.000000, -886.500000, -222.000000, -55.281104,  89.167080,  76.303704,   0.294976,   0.693081,   0.124299,   0.645816, 
30583,   7.966392,   5.562143,   0.037013,   8.260932,   6.306708, -19.411986,  -0.560106,  -1.297395,  -0.373024, -450.000000, -885.000000, -217.500000, -55.077904,  89.180328,  76.398056,   0.295507,   0.692775,   0.126181,   0.645542, 
30584,   7.929855,   5.510074,   0.047132,   8.141947,   6.157973, -18.198496,  -0.560106,  -1.297395,  -0.373024, -450.000000, -885.000000, -217.500000, -54.898652,  89.189608,  76.491144,   0.295935,   0.692487,   0.127887,   0.645328, 
30585,   7.820390,   5.633586,   0.069613,   8.299245,   6.330037, -16.556587,  -0.554156,  -1.298484,  -0.387862, -447.000000, -886.500000, -222.000000, -54.712040,  89.194624,  76.588304,   0.296404,   0.692164,   0.129636,   0.645105, 
30586,   7.878747,   5.607836,   0.124916,   8.340417,   6.445377, -14.848308,  -0.555232,  -1.311790,  -0.389594, -447.000000, -891.000000, -222.000000, -54.556684,  89.187008,  76.697760,   0.296704,   0.691826,   0.131197,   0.645004, 
30587,   7.877161,   5.795104,   0.160441,   8.580715,   6.646932, -13.588854,  -0.554311,  -1.296492,  -0.373672, -447.000000, -885.000000, -217.500000, -54.405904,  89.178136,  76.810272,   0.296969,   0.691486,   0.132741,   0.644926, 
30588,   8.014718,   5.731336,   0.149620,   8.890970,   6.835273, -13.146944,  -0.542718,  -1.294686,  -0.374968, -441.000000, -885.000000, -217.500000, -54.275448,  89.159968,  76.933912,   0.297115,   0.691132,   0.134177,   0.644941, 
30589,   7.992255,   5.816466,   0.179019,   9.109477,   7.152974, -13.547929,  -0.540725,  -1.306726,  -0.381562, -439.500000, -889.500000, -219.000000, -54.142376,  89.138544,  77.063472,   0.297263,   0.690759,   0.135645,   0.644972, 
30590,   7.913938,   5.945406,   0.287703,   9.818895,   7.556766, -14.290096,  -0.544324,  -1.313242,  -0.372740, -441.000000, -891.000000, -216.000000, -53.986812,  89.098968,  77.213728,   0.297530,   0.690283,   0.137272,   0.645024, 
30591,   7.903533,   6.008701,   0.275275,  10.652857,   8.414441, -14.935799,  -0.532015,  -1.302565,  -0.372882, -435.000000, -888.000000, -216.000000, -53.825244,  89.055048,  77.377216,   0.297783,   0.689769,   0.138990,   0.645103, 
30592,   7.863483,   5.922566,   0.286721,  11.855493,   9.218040, -15.552290,  -0.536347,  -1.320759,  -0.374868, -436.500000, -894.000000, -216.000000, -53.655092,  89.006176,  77.557672,   0.298015,   0.689196,   0.140832,   0.645206, 
30593,   7.771298,   6.037628,   0.261326,  12.904107,  10.111966, -15.968706,  -0.551912,  -1.336323,  -0.374980, -444.000000, -898.500000, -216.000000, -53.475800,  88.968376,  77.742576,   0.298208,   0.688631,   0.142817,   0.645288, 
30594,   7.828827,   5.933617,   0.139520,  13.804224,  10.793999, -16.138134,  -0.542314,  -1.322477,  -0.369682, -439.500000, -894.000000, -214.500000, -53.302088,  88.951640,  77.923640,   0.298260,   0.688120,   0.144861,   0.645343, 
30595,   7.776801,   6.030322,   0.364641,  14.712675,  11.504291, -15.993667,  -0.530176,  -1.312614,  -0.365286, -433.500000, -891.000000, -213.000000, -53.125092,  88.904328,  78.140496,   0.298314,   0.687473,   0.146966,   0.645523, 
30596,   7.737587,   6.063309,   0.189092,  15.457911,  12.205968, -15.868555,  -0.527995,  -1.321034,  -0.366765, -432.000000, -894.000000, -213.000000, -52.949468,  88.883376,  78.347248,   0.298259,   0.686905,   0.149150,   0.645652, 
30597,   7.732275,   6.138585,   0.396251,  16.264034,  12.932603, -16.055635,  -0.517478,  -1.332534,  -0.369793, -426.000000, -898.500000, -213.000000, -52.761416,  88.828592,  78.590840,   0.298272,   0.686181,   0.151438,   0.645896, 
30598,   7.790332,   6.087274,   0.216059,  17.225050,  13.602899, -16.755486,  -0.519439,  -1.314881,  -0.343894, -427.500000, -891.000000, -205.500000, -52.584524,  88.788200,  78.833312,   0.298141,   0.685500,   0.153730,   0.646146, 
30599,   7.825893,   6.179789,   0.278944,  18.035026,  14.528481, -18.052966,  -0.524330,  -1.303291,  -0.336976, -430.500000, -886.500000, -204.000000, -52.391384,  88.755888,  79.081776,   0.298014,   0.684793,   0.156198,   0.646356, 
30600,   7.843327,   6.122547,   0.198773,  18.945318,  15.168925, -19.397920,  -0.513113,  -1.308727,  -0.348502, -424.500000, -889.500000, -207.000000, -52.198244,  88.732744,  79.334992,   0.297809,   0.684097,   0.158745,   0.646571, 
30601,   7.656675,   6.195378,   0.209825,  19.676436,  16.007887, -20.271364,  -0.519080,  -1.310445,  -0.343317, -427.500000, -889.500000, -205.500000, -51.983796,  88.727040,  79.584656,   0.297639,   0.683411,   0.161495,   0.646702, 
30602,   7.611892,   6.093956,   0.189356,  20.428364,  16.532059, -20.062302,  -0.521653,  -1.312074,  -0.361720, -429.000000, -891.000000, -211.500000, -51.767128,  88.700248,  79.860552,   0.297456,   0.682613,   0.164291,   0.646922, 
30603,   7.571558,   6.265547,   0.159664,  20.579186,  17.066792, -19.798756,  -0.513659,  -1.316784,  -0.354195, -424.500000, -892.500000, -208.500000, -51.545784,  88.693848,  80.127832,   0.297229,   0.681865,   0.167178,   0.647084, 
30604,   7.582983,   6.238729,   0.255928,  21.046300,  17.412702, -19.787464,  -0.511633,  -1.323212,  -0.341484, -423.000000, -894.000000, -204.000000, -51.328256,  88.661640,  80.419616,   0.296990,   0.680997,   0.170036,   0.647348, 
30605,   7.624811,   6.133217,   0.022463,  21.229746,  17.751018, -19.648888,  -0.500383,  -1.323034,  -0.333705, -417.000000, -894.000000, -201.000000, -51.126464,  88.680256,  80.677200,   0.296556,   0.680328,   0.172880,   0.647489, 
30606,   7.561174,   6.301472,   0.246956,  21.558730,  18.035366, -19.561884,  -0.505307,  -1.317058,  -0.346092, -420.000000, -892.500000, -205.500000, -50.917388,  88.670536,  80.959856,   0.296191,   0.679530,   0.175756,   0.647725, 
30607,   7.667926,   6.369727,   0.172847,  22.028988,  18.628246, -19.963912,  -0.508718,  -1.319954,  -0.332155, -421.500000, -892.500000, -201.000000, -50.707712,  88.650024,  81.256992,   0.295815,   0.678676,   0.178659,   0.648022, 
30608,   7.597818,   6.431927,   0.243777,  22.283256,  18.987340, -20.955570,  -0.494912,  -1.320954,  -0.315625, -414.000000, -892.500000, -195.000000, -50.488344,  88.632776,  81.557800,   0.295451,   0.677792,   0.181655,   0.648297, 
30609,   7.630868,   6.361664,   0.140696,  22.294834,  19.078932, -22.180930,  -0.496329,  -1.335889,  -0.308283, -414.000000, -897.000000, -192.000000, -50.265428,  88.628856,  81.850880,   0.295063,   0.676913,   0.184692,   0.648503, 
30610,   7.537799,   6.438283,   0.134743,  22.029178,  18.967860, -23.151858,  -0.500270,  -1.344035,  -0.290386, -415.500000, -898.500000, -186.000000, -50.029432,  88.632208,  82.136432,   0.294750,   0.676036,   0.187803,   0.648652, 
30611,   7.481141,   6.324574,   0.074637,  21.745492,  18.896130, -23.391234,  -0.502109,  -1.333986,  -0.297982, -417.000000, -895.500000, -189.000000, -49.785900,  88.641992,  82.414344,   0.294487,   0.675167,   0.190947,   0.648759, 
30612,   7.350506,   6.365202,   0.120314,  21.461584,  18.944260, -22.801708,  -0.493774,  -1.337067,  -0.299532, -412.500000, -897.000000, -189.000000, -49.547796,  88.663704,  82.681480,   0.294188,   0.674348,   0.194061,   0.648836, 
30613,   7.436746,   6.264590,   0.014659,  21.019120,  18.592540, -22.194922,  -0.486806,  -1.346664,  -0.264781, -408.000000, -898.500000, -177.000000, -49.323464,  88.694720,  82.937544,   0.293822,   0.673590,   0.197078,   0.648906, 
30614,   7.242930,   6.355740,   0.041014,  20.430918,  18.304570, -21.362334,  -0.490046,  -1.348745,  -0.255382, -409.500000, -898.500000, -174.000000, -49.093128,  88.724864,  83.188824,   0.293514,   0.672797,   0.200089,   0.648932, 
30615,   7.242052,   6.324105,  -0.069702,  19.754902,  17.754684, -19.790782,  -0.485218,  -1.330914,  -0.276661, -408.000000, -894.000000, -181.500000, -48.880972,  88.769288,  83.422512,   0.293118,   0.672089,   0.202965,   0.648926, 
30616,   7.231716,   6.449611,   0.112404,  18.902892,  17.167840, -18.179274,  -0.476882,  -1.333995,  -0.278211, -403.500000, -895.500000, -181.500000, -48.679408,  88.783944,  83.668520,   0.292771,   0.671300,   0.205681,   0.649034, 
30617,   7.296903,   6.419265,   0.046705,  18.218664,  16.507730, -16.905668,  -0.474872,  -1.343229,  -0.275152, -402.000000, -898.500000, -180.000000, -48.503968,  88.803664,  83.901752,   0.292321,   0.670591,   0.208195,   0.649168, 
30618,   7.347022,   6.588066,   0.083850,  17.672106,  16.325844, -16.380175,  -0.475043,  -1.344043,  -0.270614, -402.000000, -898.500000, -178.500000, -48.329716,  88.817992,  84.131128,   0.291920,   0.669874,   0.210647,   0.649308, 
30619,   7.438586,   6.478661,  -0.000984,  17.319264,  15.950809, -16.430370,  -0.475402,  -1.348479,  -0.271192, -402.000000, -900.000000, -178.500000, -48.178988,  88.842792,  84.347936,   0.291398,   0.669249,   0.212945,   0.649455, 
30620,   7.364496,   6.647589,   0.132414,  16.799502,  15.720856, -16.792168,  -0.469043,  -1.336713,  -0.256495, -399.000000, -895.500000, -174.000000, -48.014696,  88.858040,  84.566560,   0.290994,   0.668551,   0.215274,   0.649583, 
30621,   7.433797,   6.593692,   0.012172,  16.630383,  15.550858, -17.644136,  -0.466675,  -1.341511,  -0.252859, -397.500000, -897.000000, -172.500000, -47.852312,  88.871960,  84.781744,   0.290607,   0.667856,   0.217563,   0.649709, 
30622,   7.399472,   6.572991,   0.132034,  16.206335,  15.366725, -18.475960,  -0.462296,  -1.355544,  -0.246165, -394.500000, -901.500000, -169.500000, -47.682444,  88.880824,  84.997792,   0.290285,   0.667117,   0.219868,   0.649824, 
30623,   7.406052,   6.525423,   0.063329,  15.794333,  14.905268, -19.026342,  -0.467188,  -1.343955,  -0.239247, -397.500000, -897.000000, -168.000000, -47.514308,  88.900800,  85.200992,   0.289961,   0.666429,   0.222148,   0.649889, 
30624,   7.245954,   6.726797,   0.061945,  15.377777,  14.776552, -19.452894,  -0.463793,  -1.343866,  -0.262835, -396.000000, -898.500000, -175.500000, -47.322020,  88.920840,  85.398176,   0.289809,   0.665699,   0.224534,   0.649882, 
30625,   7.307039,   6.561721,  -0.031810,  15.073794,  14.492565, -19.652754,  -0.459448,  -1.363512,  -0.275446, -393.000000, -906.000000, -178.500000, -47.138872,  88.952584,  85.583288,   0.289608,   0.665037,   0.226862,   0.649847, 
30626,   7.273996,   6.651745,   0.001906,  14.461189,  14.110717, -19.605368,  -0.455207,  -1.372746,  -0.244909, -390.000000, -907.500000, -168.000000, -46.954492,  88.983552,  85.763464,   0.289448,   0.664376,   0.229162,   0.649799, 
30627,   7.177830,   6.657736,   0.027095,  14.072981,  13.690011, -19.322184,  -0.450688,  -1.350932,  -0.237808, -388.500000, -900.000000, -166.500000, -46.768488,  89.002720,  85.945664,   0.289351,   0.663664,   0.231412,   0.649768, 
30628,   7.227217,   6.698502,   0.064737,  13.672630,  13.492832, -19.015826,  -0.458698,  -1.349028,  -0.254986, -393.000000, -900.000000, -172.500000, -46.585076,  89.018752,  86.125664,   0.289270,   0.662949,   0.233614,   0.649745, 
30629,   7.127157,   6.736757,   0.013656,  13.112127,  13.085541, -18.894824,  -0.447635,  -1.352472,  -0.252322, -387.000000, -901.500000, -171.000000, -46.409816,  89.051352,  86.286800,   0.289157,   0.662328,   0.235752,   0.649662, 
30630,   7.163609,   6.676907,   0.058346,  12.953457,  12.881834, -18.790920,  -0.436727,  -1.353924,  -0.235468, -381.000000, -901.500000, -165.000000, -46.230896,  89.058816,  86.462264,   0.289124,   0.661592,   0.237847,   0.649649, 
30631,   7.154903,   6.859534,   0.026537,  12.859111,  12.975516, -18.876358,  -0.449019,  -1.361795,  -0.225674, -387.000000, -903.000000, -162.000000, -46.046844,  89.075144,  86.630168,   0.289114,   0.660878,   0.239977,   0.649588, 
30632,   7.169327,   6.739524,   0.057841,  12.747952,  12.852996, -19.307172,  -0.445592,  -1.356093,  -0.229959, -385.500000, -901.500000, -163.500000, -45.872740,  89.082176,  86.803912,   0.289069,   0.660148,   0.242028,   0.649588, 
30633,   7.163398,   6.883599,   0.061240,  12.909619,  13.189034, -20.403726,  -0.430027,  -1.340529,  -0.229846, -378.000000, -897.000000, -163.500000, -45.681496,  89.088784,  86.978928,   0.289118,   0.659373,   0.244183,   0.649553, 
30634,   7.234123,   6.862781,   0.050146,  13.066908,  13.445330, -21.634226,  -0.433438,  -1.343424,  -0.215910, -379.500000, -897.000000, -159.000000, -45.489584,  89.095768,  87.156744,   0.289154,   0.658589,   0.246359,   0.649527, 
30635,   7.071225,   6.951576,   0.145058,  13.255786,  13.808305, -22.864416,  -0.432503,  -1.365965,  -0.214584, -378.000000, -904.500000, -157.500000, -45.277864,  89.092848,  87.344848,   0.289296,   0.657699,   0.248647,   0.649492, 
30636,   7.124506,   6.787519,   0.085868,  13.567673,  14.216029, -23.790750,  -0.432691,  -1.369585,  -0.219699, -378.000000, -906.000000, -159.000000, -45.065064,  89.092984,  87.535744,   0.289413,   0.656801,   0.250972,   0.649457, 
30637,   7.009428,   6.885786,   0.067962,  13.915251,  14.621338, -24.397632,  -0.431631,  -1.359085,  -0.227619, -378.000000, -903.000000, -162.000000, -44.835032,  89.101720,  87.725440,   0.289581,   0.655873,   0.253432,   0.649351, 
30638,   6.931937,   7.044628,   0.160149,  14.160913,  14.992624, -24.745148,  -0.419681,  -1.352844,  -0.228337, -372.000000, -901.500000, -162.000000, -44.585808,  89.091456,  87.933016,   0.289864,   0.654804,   0.255994,   0.649286, 
30639,   6.904913,   7.013228,   0.120779,  14.303823,  15.193932, -25.133564,  -0.417671,  -1.362078,  -0.225279, -370.500000, -904.500000, -160.500000, -44.340684,  89.087752,  88.139448,   0.290095,   0.653759,   0.258561,   0.649218, 
30640,   6.872901,   7.141101,   0.206988,  14.225281,  15.291018, -25.513700,  -0.422158,  -1.378280,  -0.213075, -372.000000, -909.000000, -156.000000, -44.083344,  89.070936,  88.356032,   0.290415,   0.652623,   0.261179,   0.649182, 
30641,   6.866425,   7.171017,   0.093845,  14.146409,  15.291344, -26.263014,  -0.418697,  -1.366965,  -0.198054, -370.500000, -904.500000, -151.500000, -43.820344,  89.055448,  88.570880,   0.290771,   0.651476,   0.263825,   0.649130, 
30642,   6.792504,   7.059428,   0.131382,  13.997130,  15.435954, -26.853890,  -0.408382,  -1.344247,  -0.191601, -366.000000, -897.000000, -150.000000, -43.561300,  89.066104,  88.767976,   0.291051,   0.650424,   0.266488,   0.648974, 
