Standard output of YIS Manager:
  TID,     AccX,     AccY,     AccZ,    AngVX,    AngVY,    AngVZ,     MagX,     MagY,     MagZ, NormMagX, NormMagY, NormMagZ,    Pitch,     Roll,      Yaw,       q0,       q1,       q2,       q3, 
31988,   0.471893,  -9.884240,  -0.192847,  -0.076845,   0.144268,  -0.005593,  -0.067604,   1.093292,  -0.805473, -301.500000, -133.500000, -445.500000,  -2.903746, -90.915000, -179.336608,  -0.013998,  -0.021896,   0.712357,  -0.701277, 
31989,   0.543688,  -9.611071,  -0.116585,  -0.136542,   0.207297,   0.116709,  -0.064177,   1.098994,  -0.809757, -300.000000, -132.000000, -447.000000,  -2.905950, -90.909184, -179.336896,  -0.014012,  -0.021908,   0.712321,  -0.701313, 
31990,   0.520002,  -9.884954,  -0.231440,   0.060182,   0.117581,   0.056362,  -0.068101,   1.093655,  -0.782207, -301.500000, -132.000000, -438.000000,  -2.908492, -90.913896, -179.335488,  -0.014020,  -0.021932,   0.712349,  -0.701283, 
31991,   0.509075,  -9.642963,  -0.050766,  -0.273969,   0.171046,  -0.076913,  -0.071683,   1.089946,  -0.763734, -303.000000, -132.000000, -432.000000,  -2.911885, -90.911264, -179.328368,  -0.013997,  -0.021997,   0.712331,  -0.701300, 
31992,   0.470410,  -9.846955,  -0.220570,   0.180830,   0.106820,  -0.255805,  -0.070811,   1.096825,  -0.776769, -303.000000, -130.500000, -436.500000,  -2.910338, -90.912448, -179.317024,  -0.013918,  -0.022058,   0.712336,  -0.701294, 
31993,   0.515544,  -9.753304,  -0.152891,  -0.265545,   0.144028,  -0.138221,  -0.075923,   1.099180,  -0.794271, -306.000000, -130.500000, -442.500000,  -2.911545, -90.915480, -179.303792,  -0.013845,  -0.022147,   0.712352,  -0.701277, 
31994,   0.498765,  -9.762670,  -0.164236,  -0.015863,   0.214772,  -0.108104,  -0.079180,   1.094293,  -0.794524, -307.500000, -132.000000, -442.500000,  -2.910654, -90.913320, -179.284608,  -0.013722,  -0.022261,   0.712335,  -0.701293, 
31995,   0.525721,  -9.727996,  -0.120339,  -0.223017,   0.108524,  -0.103571,  -0.074647,   1.078268,  -0.802019, -304.500000, -138.000000, -444.000000,  -2.910667, -90.914440, -179.266944,  -0.013614,  -0.022371,   0.712339,  -0.701288, 
31996,   0.541300,  -9.786433,  -0.188722,   0.138014,   0.134048,  -0.168764,  -0.071577,   1.079534,  -0.806881, -303.000000, -138.000000, -445.500000,  -2.919504, -90.913080, -179.257664,  -0.013612,  -0.022483,   0.712327,  -0.701296, 
31997,   0.486659,  -9.782129,  -0.159618,  -0.231793,   0.099957,  -0.042899,  -0.061621,   1.097816,  -0.801005, -298.500000, -132.000000, -444.000000,  -2.917296, -90.916120, -179.254928,  -0.013582,  -0.022486,   0.712345,  -0.701278, 
31998,   0.519539,  -9.693597,  -0.173477,   0.043632,   0.152363,  -0.108557,  -0.073213,   1.096010,  -0.799710, -304.500000, -132.000000, -444.000000,  -2.918088, -90.914880, -179.253648,  -0.013579,  -0.022499,   0.712337,  -0.701286, 
31999,   0.496680,  -9.832949,  -0.181414,  -0.145790,   0.117690,  -0.015528,  -0.072449,   1.072655,  -0.793846, -303.000000, -139.500000, -441.000000,  -2.918599, -90.918048, -179.242320,  -0.013514,  -0.022572,   0.712354,  -0.701267, 
32000,   0.477188,  -9.714234,  -0.106528,  -0.093623,   0.198083,   0.073504,  -0.058522,   1.064050,  -0.810811, -295.500000, -144.000000, -445.500000,  -2.914166, -90.913640, -179.240160,  -0.013472,  -0.022559,   0.712328,  -0.701295, 
32001,   0.511155,  -9.779902,  -0.139959,  -0.041549,   0.232932,  -0.047144,  -0.066515,   1.068760,  -0.818336, -300.000000, -142.500000, -448.500000,  -2.912884, -90.913440, -179.243792,  -0.013486,  -0.022529,   0.712328,  -0.701296, 
32002,   0.487171,  -9.757404,  -0.110614,   0.018723,   0.268958,   0.067297,  -0.069397,   1.071115,  -0.808360, -301.500000, -141.000000, -445.500000,  -2.912200, -90.909032, -179.240400,  -0.013460,  -0.022546,   0.712300,  -0.701324, 
32003,   0.531721,  -9.800543,  -0.207688,  -0.111176,   0.162625,   0.090086,  -0.063071,   1.077268,  -0.812968, -298.500000, -139.500000, -447.000000,  -2.911749, -90.909184, -179.239536,  -0.013452,  -0.022549,   0.712301,  -0.701324, 
32004,   0.508850,  -9.694693,  -0.197164,  -0.188531,   0.163020,   0.132756,  -0.056216,   1.088671,  -0.821536, -295.500000, -136.500000, -450.000000,  -2.915412, -90.914224, -179.250688,  -0.013544,  -0.022501,   0.712333,  -0.701290, 
32005,   0.507518,  -9.796415,  -0.150030,  -0.000154,   0.127587,   0.247340,  -0.060920,   1.103881,  -0.809503, -298.500000, -130.500000, -447.000000,  -2.913204, -90.914312, -179.262336,  -0.013602,  -0.022416,   0.712337,  -0.701289, 
32006,   0.459670,  -9.809744,  -0.187576,  -0.017124,   0.145329,   0.230062,  -0.052568,   1.103606,  -0.801400, -294.000000, -130.500000, -444.000000,  -2.901036, -90.915264, -179.272352,  -0.013588,  -0.022279,   0.712347,  -0.701283, 
32007,   0.561991,  -9.706783,  -0.166677,  -0.103099,   0.118346,   0.132903,  -0.050933,   1.087130,  -0.808572, -292.500000, -136.500000, -445.500000,  -2.905952, -90.919520, -179.295744,  -0.013762,  -0.022163,   0.712377,  -0.701253, 
32008,   0.476471,  -9.755555,  -0.128397,   0.001245,   0.251603,   0.145123,  -0.062337,   1.088945,  -0.802161, -298.500000, -135.000000, -444.000000,  -2.902711, -90.916664, -179.308160,  -0.013817,  -0.022066,   0.712362,  -0.701270, 
32009,   0.482949,  -9.805160,  -0.160842,  -0.033416,   0.179314,  -0.091522,  -0.062492,   1.090937,  -0.787971, -298.500000, -133.500000, -439.500000,  -2.897645, -90.916192, -179.309744,  -0.013796,  -0.022025,   0.712361,  -0.701274, 
32010,   0.479358,  -9.718623,  -0.150973,  -0.092649,   0.188855,   0.008562,  -0.065032,   1.094921,  -0.787069, -300.000000, -132.000000, -439.500000,  -2.898224, -90.917792, -179.311536,  -0.013811,  -0.022018,   0.712371,  -0.701263, 
32011,   0.445929,  -9.773113,  -0.154014,  -0.084188,   0.287115,   0.092595,  -0.064706,   1.093744,  -0.805797, -300.000000, -133.500000, -445.500000,  -2.887875, -90.917056, -179.308080,  -0.013725,  -0.021976,   0.712368,  -0.701270, 
32012,   0.474613,  -9.810533,  -0.148973,  -0.130038,   0.325066,   0.343216,  -0.060344,   1.076905,  -0.808755, -297.000000, -139.500000, -445.500000,  -2.878380, -90.915112, -179.309280,  -0.013673,  -0.021910,   0.712359,  -0.701283, 
32013,   0.496990,  -9.750271,  -0.154798,  -0.051891,   0.220031,   0.909836,  -0.055094,   1.069751,  -0.815095, -294.000000, -142.500000, -447.000000,  -2.873160, -90.917176, -179.319840,  -0.013705,  -0.021812,   0.712375,  -0.701270, 
32014,   0.406525,  -9.741031,  -0.089630,   0.058438,   0.274834,   1.435169,  -0.053864,   1.081066,  -0.827553, -294.000000, -139.500000, -451.500000,  -2.852330, -90.910632, -179.330864,  -0.013642,  -0.021617,   0.712341,  -0.701312, 
32015,   0.439854,  -9.847415,  -0.223159,   0.092123,   0.244095,   2.208589,  -0.050591,   1.088759,  -0.817647, -292.500000, -136.500000, -448.500000,  -2.823871, -90.911648, -179.344080,  -0.013546,  -0.021361,   0.712356,  -0.701309, 
32016,   0.475702,  -9.757889,  -0.213978,   0.031644,   0.189126,   3.228091,  -0.054002,   1.085864,  -0.803710, -294.000000, -136.500000, -444.000000,  -2.793108, -90.917912, -179.357648,  -0.013439,  -0.021088,   0.712403,  -0.701272, 
32017,   0.280223,  -9.719248,  -0.158753,  -0.118436,   0.130021,   4.171108,  -0.054173,   1.085050,  -0.799173, -294.000000, -136.500000, -442.500000,  -2.732427, -90.913504, -179.358800,  -0.013068,  -0.020710,   0.712385,  -0.701304, 
32018,   0.388484,  -9.842606,  -0.225702,   0.043946,   0.181938,   4.930009,  -0.058334,   1.067671,  -0.805696, -295.500000, -142.500000, -444.000000,  -2.670760, -90.917728, -179.353952,  -0.012656,  -0.020362,   0.712419,  -0.701283, 
32019,   0.402377,  -9.749267,  -0.170847,  -0.301675,   0.075239,   5.560587,  -0.061591,   1.062784,  -0.805949, -297.000000, -144.000000, -444.000000,  -2.612557, -90.922168, -179.345856,  -0.012245,  -0.020056,   0.712454,  -0.701261, 
32020,   0.373148,  -9.762306,  -0.156516,  -0.088209,   0.132584,   6.049388,  -0.054531,   1.080614,  -0.799750, -294.000000, -138.000000, -442.500000,  -2.543897, -90.922512, -179.346224,  -0.011820,  -0.019633,   0.712466,  -0.701264, 
32021,   0.288239,  -9.857078,  -0.099181,  -0.192606,   0.128727,   7.381654,  -0.054002,   1.085864,  -0.803710, -294.000000, -136.500000, -444.000000,  -2.455953, -90.917840, -179.341104,  -0.011241,  -0.019128,   0.712450,  -0.701300, 
32022,   0.207138,  -9.833583,  -0.163573,  -0.154211,   0.147958,   9.042746,  -0.050762,   1.087945,  -0.813109, -292.500000, -136.500000, -447.000000,  -2.341329, -90.917640, -179.334720,  -0.010489,  -0.018466,   0.712464,  -0.701311, 
32023,   0.195937,  -9.822256,  -0.192501,  -0.080010,   0.078636,  11.576823,  -0.051650,   1.078259,  -0.809727, -292.500000, -139.500000, -445.500000,  -2.204829, -90.917336, -179.322032,  -0.009562,  -0.017709,   0.712481,  -0.701324, 
32024,   0.041809,  -9.883310,  -0.179003,  -0.068011,  -0.097263,  15.282253,  -0.051463,   1.081880,  -0.804611, -292.500000, -138.000000, -444.000000,  -2.026882, -90.920048, -179.300864,  -0.008327,  -0.016752,   0.712521,  -0.701322, 
32025,   0.110985,  -9.861019,  -0.135324,  -0.308448,  -0.180928,  18.157826,  -0.053456,   1.093921,  -0.798018, -294.000000, -133.500000, -442.500000,  -1.825133, -90.922696, -179.275856,  -0.006919,  -0.015673,   0.712565,  -0.701322, 
32026,   0.013773,  -9.856383,  -0.192308,  -0.215070,  -0.099727,  20.951040,  -0.056541,   1.089848,  -0.802809, -295.500000, -135.000000, -444.000000,  -1.588005, -90.924160, -179.236656,  -0.005205,  -0.014466,   0.712605,  -0.701333, 
32027,  -0.060319,  -9.898025,  -0.200364,  -0.363985,  -0.462789,  23.930960,  -0.053269,   1.097542,  -0.792903, -294.000000, -132.000000, -441.000000,  -1.324645, -90.934056, -179.197200,  -0.003326,  -0.013099,   0.712697,  -0.701285, 
32028,  -0.296229,  -9.879974,  -0.105979,  -0.341121,  -0.177894,  27.291740,  -0.047439,   1.104058,  -0.774246, -291.000000, -129.000000, -435.000000,  -1.001045, -90.930360, -179.146352,  -0.001002,  -0.011436,   0.712695,  -0.701307, 
32029,  -0.349968,  -9.994479,  -0.134130,  -0.434778,  -0.173032,  31.898522,  -0.051772,   1.085864,  -0.776232, -292.500000, -135.000000, -435.000000,  -0.632492, -90.928760, -179.079872,   0.001697,  -0.009594,   0.712712,  -0.701314, 
32030,  -0.400650,  -9.964990,  -0.203864,  -0.361146,  -0.425750,  37.630084,  -0.049420,   1.078259,  -0.782248, -291.000000, -138.000000, -436.500000,  -0.217907, -90.935184, -179.009616,   0.004705,  -0.007494,   0.712784,  -0.701267, 
32031,  -0.528264, -10.029264,  -0.105384,  -0.637596,  -0.479084,  43.343920,  -0.043094,   1.084412,  -0.786856, -288.000000, -136.500000, -438.000000,   0.261487, -90.937600, -178.933968,   0.008150,  -0.005031,   0.712821,  -0.701220, 
32032,  -0.559959,  -9.930289,  -0.156241,  -0.448487,  -0.351787,  49.025488,  -0.046554,   1.073098,  -0.801877, -289.500000, -141.000000, -442.500000,   0.795581, -90.938872, -178.842320,   0.012033,  -0.002333,   0.712839,  -0.701154, 
32033,  -0.473744, -10.010367,  -0.216506,  -0.742716,  -0.566175,  54.158976,  -0.041117,   1.069565,  -0.803103, -286.500000, -142.500000, -442.500000,   1.359866, -90.950448, -178.756928,   0.016065,   0.000587,   0.712926,  -0.701016, 
32034,  -0.198987,  -9.767858,  -0.161309,  -0.699898,  -0.607110,  56.235820,  -0.029338,   1.074992,  -0.799284, -280.500000, -141.000000, -441.000000,   1.909136, -90.956096, -178.695456,   0.019857,   0.003564,   0.712941,  -0.700877, 
32035,  -0.145735,  -9.862180,  -0.222812,  -0.778994,  -0.505147,  55.647864,  -0.020473,   1.077161,  -0.804793, -276.000000, -141.000000, -442.500000,   2.437686, -90.967528, -178.644864,   0.023454,   0.006481,   0.712993,  -0.700700, 
32036,  -0.194551,  -9.701239,  -0.122411,  -0.743144,  -0.696360,  54.214676,  -0.017387,   1.081234,  -0.800002, -274.500000, -139.500000, -441.000000,   2.938373, -90.974480, -178.591712,   0.026894,   0.009212,   0.713011,  -0.700544, 
32037,  -0.301071,  -9.803565,  -0.263471,  -0.721941,  -0.503991,  52.402312,  -0.011933,   1.080508,  -0.791575, -271.500000, -139.500000, -438.000000,   3.432178, -90.986440, -178.530224,   0.030341,   0.011847,   0.713031,  -0.700321, 
32038,  -0.273073,  -9.647493,  -0.040664,  -0.778128,  -0.506786,  50.077956,  -0.003051,   1.085483,  -0.787432, -267.000000, -138.000000, -436.500000,   3.889643, -90.986240, -178.475808,   0.033517,   0.014306,   0.712983,  -0.700182, 
32039,  -0.337434,  -9.746140,  -0.240097,  -0.395531,  -0.513178,  47.244908,  -0.000871,   1.077064,  -0.788911, -265.500000, -141.000000, -436.500000,   4.314890, -90.993296, -178.418432,   0.036512,   0.016548,   0.712979,  -0.699996, 
32040,  -0.421519,  -9.646228,  -0.080131,  -0.810778,  -0.510917,  44.002872,   0.007618,   1.071991,  -0.804651, -261.000000, -144.000000, -441.000000,   4.713605, -90.994960, -178.361616,   0.039337,   0.018632,   0.712924,  -0.699826, 
32041,  -0.399322,  -9.646643,  -0.222785,  -0.356012,  -0.280675,  40.504688,   0.005062,   1.073168,  -0.813401, -262.500000, -144.000000, -444.000000,   5.070773, -90.998432, -178.296848,   0.041952,   0.020411,   0.712892,  -0.699654, 
32042,  -0.407749,  -9.659851,  -0.093021,  -0.788866,  -0.377873,  36.938688,   0.007056,   1.061128,  -0.819996, -261.000000, -148.500000, -445.500000,   5.385199, -91.006752, -178.232688,   0.044299,   0.021931,   0.712898,  -0.699465, 
32043,  -0.635060,  -9.602737,  -0.121824,  -0.128432,  -0.348462,  32.525390,   0.019006,   1.067369,  -0.820714, -255.000000, -147.000000, -445.500000,   5.675964, -91.000416, -178.169520,   0.046490,   0.023318,   0.712817,  -0.699369, 
32044,  -0.587827,  -9.724442,  -0.240178,  -0.542415,  -0.166771,  29.582468,   0.023914,   1.058587,  -0.817979, -252.000000, -150.000000, -444.000000,   5.929591, -91.013864, -178.112224,   0.048417,   0.024506,   0.712848,  -0.699150, 
32045,  -0.998704,  -9.613595,  -0.164083,  -0.293694,  -0.523895,  27.690320,   0.014178,   1.049539,  -0.799435, -256.500000, -151.500000, -438.000000,   6.193572, -91.015392, -178.017552,   0.050634,   0.025530,   0.712814,  -0.698982, 
32046,  -0.982586,  -9.770783,  -0.198299,  -0.305766,  -0.163761,  26.782778,   0.006217,   1.059862,  -0.787655, -261.000000, -147.000000, -435.000000,   6.458190, -91.015824, -177.899040,   0.053000,   0.026410,   0.712781,  -0.698807, 
32047,  -1.271036,  -9.727580,  -0.241141,  -0.249215,  -0.482920,  27.021412,   0.020178,   1.056869,  -0.785316, -253.500000, -148.500000, -433.500000,   6.728617, -91.023672, -177.793568,   0.055323,   0.027403,   0.712792,  -0.698586, 
32048,  -1.449393,  -9.837529,  -0.150480,  -0.439517,  -0.359050,  28.553238,   0.038283,   1.068449,  -0.786105, -244.500000, -145.500000, -433.500000,   7.040189, -91.027088, -177.692720,   0.057873,   0.028678,   0.712768,  -0.698372, 
32049,  -1.407207,  -9.744184,  -0.230954,  -0.278060,  -0.015019,  31.554938,   0.040635,   1.060844,  -0.792121, -243.000000, -148.500000, -435.000000,   7.376031, -91.030048, -177.591152,   0.060576,   0.030096,   0.712715,  -0.698121, 
32050,  -1.538893,  -9.759758,  -0.148733,  -0.743415,  -0.715730,  33.495522,   0.037207,   1.055143,  -0.787837, -244.500000, -150.000000, -433.500000,   7.719257, -91.038000, -177.486336,   0.063345,   0.031536,   0.712695,  -0.697829, 
32051,  -1.752080,  -9.772642,  -0.064167,  -0.399810,  -0.221886,  36.301732,   0.044779,   1.075417,  -0.795250, -241.500000, -144.000000, -436.500000,   8.128710, -91.027088, -177.357552,   0.066665,   0.033243,   0.712552,  -0.697601, 
32052,  -1.431563,  -9.909346,  -0.338068,  -0.562540,  -0.508022,  39.436620,   0.045121,   1.077046,  -0.804325, -241.500000, -144.000000, -439.500000,   8.510664, -91.044880, -177.255248,   0.069661,   0.034929,   0.712583,  -0.697214, 
32053,  -1.832012,  -9.618265,   0.032719,  -0.731241,  -0.692211,  41.624628,   0.043345,   1.057675,  -0.797560, -241.500000, -150.000000, -436.500000,   8.957789, -91.038776, -177.119728,   0.073253,   0.036820,   0.712433,  -0.696882, 
32054,  -1.635030,  -9.761579,  -0.230894,  -0.254884,  -0.054995,  42.946632,   0.039388,   1.046723,  -0.789316, -243.000000, -153.000000, -433.500000,   9.402207, -91.036584, -176.984208,   0.076827,   0.038693,   0.712310,  -0.696515, 
32055,  -1.520103,  -9.607952,  -0.154982,  -0.892638,  -0.321429,  42.743412,   0.036115,   1.039030,  -0.799222, -244.500000, -156.000000, -436.500000,   9.809269, -91.049888, -176.860320,   0.080104,   0.040399,   0.712295,  -0.696079, 
32056,  -1.215048,  -9.553500,  -0.230572,  -0.290819,  -0.444188,  41.616480,   0.050418,   1.037666,  -0.805957, -237.000000, -157.500000, -438.000000,  10.173010, -91.058024, -176.764144,   0.082940,   0.042014,   0.712234,  -0.695694, 
32057,  -1.495221,  -9.426648,  -0.148771,  -0.582993,  -0.286007,  37.604012,   0.061855,   1.041464,  -0.793063, -231.000000, -156.000000, -433.500000,  10.526756, -91.064312, -176.665504,   0.085728,   0.043555,   0.712167,  -0.695320, 
32058,  -1.192749,  -9.587147,  -0.298888,  -0.163980,  -0.216352,  33.998148,   0.065454,   1.047980,  -0.801885, -229.500000, -154.500000, -436.500000,  10.801987, -91.073616, -176.585152,   0.087921,   0.044727,   0.712146,  -0.694996, 
32059,  -1.518681,  -9.496167,  -0.210960,  -0.807429,  -0.720853,  30.709784,   0.066901,   1.027883,  -0.814171, -228.000000, -162.000000, -439.500000,  11.059332, -91.092336, -176.498208,   0.090046,   0.045743,   0.712194,  -0.694619, 
32060,  -1.846050,  -9.434429,   0.033919,  -0.337389,  -0.603953,  27.671010,   0.070704,   1.040827,  -0.808225, -226.500000, -157.500000, -438.000000,  11.337480, -91.075360, -176.376976,   0.092493,   0.046699,   0.712027,  -0.694412, 
32061,  -1.569495,  -9.635652,  -0.404418,  -0.061133,   0.106919,  25.893878,   0.088263,   1.044350,  -0.814706, -217.500000, -157.500000, -439.500000,  11.566761, -91.088120, -176.285584,   0.094467,   0.047519,   0.712039,  -0.694068, 
32062,  -2.045550,  -9.385580,  -0.060189,  -0.864895,  -0.746173,  23.955220,   0.093888,   1.044439,  -0.810817, -214.500000, -157.500000, -438.000000,  11.801164, -91.093608, -176.193840,   0.096471,   0.048373,   0.712006,  -0.693762, 
32063,  -1.963668,  -9.521876,  -0.033704,  -0.064179,   0.080680,  22.481822,   0.091740,   1.058471,  -0.790033, -216.000000, -151.500000, -432.000000,  12.035923, -91.072680, -176.083600,   0.098578,   0.049137,   0.711824,  -0.693601, 
32064,  -1.619646,  -9.592325,  -0.396500,  -0.543563,  -0.032834,  20.934104,   0.085023,   1.042269,  -0.805308, -219.000000, -157.500000, -436.500000,  12.196384, -91.099664, -176.005664,   0.100052,   0.049608,   0.711953,  -0.693232, 
32065,  -1.966532,  -9.328153,   0.027782,  -0.370843,  -0.366241,  18.423636,   0.078339,   1.031681,  -0.801277, -222.000000, -160.500000, -435.000000,  12.369142, -91.090680, -175.891776,   0.101803,   0.049962,   0.711877,  -0.693043, 
32066,  -2.058813,  -9.604905,  -0.301225,   0.073961,   0.069924,  16.930676,   0.078510,   1.032496,  -0.805815, -222.000000, -160.500000, -436.500000,  12.537873, -91.092144, -175.771392,   0.103573,   0.050242,   0.711870,  -0.692784, 
32067,  -2.227080,  -9.493278,  -0.185157,  -0.552278,  -0.232382,  16.481329,   0.081220,   1.029326,  -0.811254, -220.500000, -162.000000, -438.000000,  12.704978, -91.104160, -175.651712,   0.105331,   0.050507,   0.711917,  -0.692448, 
32068,  -2.468828,  -9.435576,  -0.216231,   0.067129,   0.257030,  16.986142,   0.080878,   1.027697,  -0.802179, -220.500000, -162.000000, -435.000000,  12.908412, -91.098192, -175.512208,   0.107423,   0.050884,   0.711839,  -0.692159, 
32069,  -2.545353,  -9.450463,  -0.200090,  -0.001957,   1.574783,  17.579322,   0.089540,   1.023439,  -0.822456, -216.000000, -165.000000, -441.000000,  13.133265, -91.105224, -175.386224,   0.109570,   0.051465,   0.711827,  -0.691779, 
32070,  -2.616280,  -9.426400,  -0.062700,   0.712526,   3.105273,  17.600844,   0.095148,   1.020721,  -0.828219, -213.000000, -166.500000, -442.500000,  13.365608, -91.092072, -175.275968,   0.111659,   0.052209,   0.711684,  -0.691529, 
32071,  -2.616565,  -9.385861,  -0.041101,   0.905981,   5.391808,  17.564306,   0.089743,   1.029866,  -0.807688, -216.000000, -162.000000, -436.500000,  13.600307, -91.078664, -175.179120,   0.113681,   0.053051,   0.711536,  -0.691288, 
32072,  -2.394110,  -9.343642,   0.073568,   2.127833,   8.035544,  16.903362,   0.092625,   1.027511,  -0.817665, -214.500000, -163.500000, -439.500000,  13.804004, -91.053072, -175.108624,   0.115347,   0.053881,   0.711319,  -0.691178, 
32073,  -2.289801,  -9.630512,  -0.257062,   2.137599,   9.174116,  15.533158,   0.094977,   1.019906,  -0.823681, -213.000000, -166.500000, -441.000000,  13.956550, -91.055352, -175.084752,   0.116430,   0.054660,   0.711273,  -0.690991, 
32074,  -2.371002,  -9.408788,  -0.216664,   2.269131,   9.895246,  15.319209,   0.101131,   1.025245,  -0.823752, -210.000000, -165.000000, -441.000000,  14.105954, -91.068432, -175.072992,   0.117425,   0.055485,   0.711286,  -0.690749, 
32075,  -2.767766,  -9.356911,  -0.026995,   2.761071,  11.203679,  15.305327,   0.101131,   1.025245,  -0.823752, -210.000000, -165.000000, -441.000000,  14.304104, -91.050312, -175.041440,   0.118822,   0.056514,   0.711085,  -0.690620, 
32076,  -2.899681,  -9.624443,  -0.037800,   3.776190,  14.209290,  17.683926,   0.103842,   1.022075,  -0.829191, -208.500000, -166.500000, -442.500000,  14.552602, -91.032240, -175.013936,   0.120503,   0.057877,   0.710856,  -0.690442, 
32077,  -2.953885,  -9.614862,  -0.163378,   4.014547,  15.509706,  21.421946,   0.111289,   1.009309,  -0.827358, -204.000000, -171.000000, -441.000000,  14.808343, -91.023208, -175.025840,   0.121995,   0.059518,   0.710658,  -0.690241, 
32078,  -3.022153,  -9.650908,  -0.156764,   4.232155,  16.745827,  26.889512,   0.116385,   1.004147,  -0.819508, -201.000000, -172.500000, -438.000000,  15.112585, -91.028344, -175.058688,   0.123667,   0.061570,   0.710509,  -0.689924, 
32079,  -2.988018,  -9.679734,  -0.230824,   4.826925,  17.803666,  32.843498,   0.116385,   1.004147,  -0.819508, -201.000000, -172.500000, -438.000000,  15.458862, -91.027328, -175.102448,   0.125527,   0.063953,   0.710292,  -0.689615, 
32080,  -3.137746,  -9.717883,  -0.115179,   4.824126,  18.753636,  38.889548,   0.119283,   1.004599,  -0.819832, -199.500000, -172.500000, -438.000000,  15.864017, -91.029600, -175.150832,   0.127717,   0.066716,   0.710029,  -0.689201, 
32081,  -3.076923,  -9.430164,  -0.070792,   5.597198,  20.347072,  43.541836,   0.133431,   1.005227,  -0.812377, -192.000000, -172.500000, -435.000000,  16.327053, -91.019304, -175.205664,   0.130216,   0.069885,   0.709647,  -0.688808, 
32082,  -2.711892,  -9.582659,  -0.036372,   6.095300,  21.804420,  46.381372,   0.138493,   0.994453,  -0.823833, -189.000000, -177.000000, -438.000000,  16.766649, -91.014816, -175.308736,   0.132285,   0.073203,   0.709283,  -0.688465, 
32083,  -2.366629,  -9.498769,  -0.317873,   6.687858,  22.386092,  46.939752,   0.137418,   0.981146,  -0.825565, -189.000000, -181.500000, -438.000000,  17.162002, -91.027520, -175.496304,   0.133585,   0.076753,   0.708968,  -0.688149, 
32084,  -2.379359,  -9.379258,  -0.189558,   6.412900,  22.538438,  45.675560,   0.134007,   0.978251,  -0.811628, -190.500000, -181.500000, -433.500000,  17.538324, -91.045216, -175.741536,   0.134426,   0.080536,   0.708642,  -0.687893, 
32085,  -2.426886,  -9.349472,  -0.249499,   7.169449,  22.611862,  43.351848,   0.143760,   0.990106,  -0.820521, -186.000000, -178.500000, -436.500000,  17.898448, -91.060192, -175.988144,   0.135158,   0.084229,   0.708286,  -0.687670, 
32086,  -2.600103,  -9.331027,  -0.223040,   7.137226,  22.858546,  40.728548,   0.158967,   1.001234,  -0.820986, -178.500000, -175.500000, -436.500000,  18.239744, -91.077832, -176.176112,   0.136132,   0.087441,   0.707993,  -0.687390, 
32087,  -2.853471,  -9.217716,  -0.119867,   7.517890,  23.093740,  38.753620,   0.166927,   0.990911,  -0.832765, -174.000000, -180.000000, -439.500000,  18.599304, -91.079984, -176.423168,   0.136848,   0.091143,   0.707515,  -0.687238, 
32088,  -2.813021,  -9.295784,  -0.280078,   8.068037,  23.488632,  37.355856,   0.174016,   0.973709,  -0.831509, -169.500000, -186.000000, -438.000000,  18.926646, -91.093584, -176.678800,   0.137326,   0.094687,   0.707114,  -0.687070, 
32089,  -2.742666,  -9.147181,  -0.158862,   8.042878,  23.767730,  34.694532,   0.173845,   0.972895,  -0.826972, -169.500000, -186.000000, -436.500000,  19.224642, -91.097168, -176.934656,   0.137618,   0.098066,   0.706669,  -0.687008, 
32090,  -2.774835,  -9.229715,  -0.300404,   8.460362,  23.938064,  31.450158,   0.164605,   0.963484,  -0.831693, -174.000000, -189.000000, -438.000000,  19.473784, -91.107072, -177.194800,   0.137592,   0.101167,   0.706292,  -0.686977, 
32091,  -2.891009,  -8.996562,  -0.045504,   8.486315,  24.271502,  28.225640,   0.171744,   0.954701,  -0.801480, -169.500000, -190.500000, -427.500000,  19.707862, -91.099792, -177.451600,   0.137477,   0.104172,   0.705802,  -0.687051, 
32092,  -2.964601,  -9.314610,  -0.311909,   9.198092,  24.536628,  25.289828,   0.179208,   0.944741,  -0.789994, -165.000000, -193.500000, -423.000000,  19.902604, -91.104816, -177.717104,   0.137078,   0.106976,   0.705393,  -0.687099, 
32093,  -3.089447,  -9.039149,  -0.155603,   8.813046,  24.757912,  22.954228,   0.188073,   0.946910,  -0.795504, -160.500000, -193.500000, -424.500000,  20.092932, -91.107744, -177.983680,   0.136645,   0.109761,   0.704970,  -0.687171, 
32094,  -3.294478,  -9.205819,  -0.259999,   9.603573,  25.007582,  21.873704,   0.182277,   0.946007,  -0.794855, -163.500000, -193.500000, -424.500000,  20.289988, -91.105520, -178.251184,   0.136243,   0.112598,   0.704502,  -0.687273, 
32095,  -3.478925,  -9.084139,  -0.147389,   9.298510,  25.389884,  21.694372,   0.187886,   0.943289,  -0.800619, -160.500000, -195.000000, -426.000000,  20.508484, -91.106304, -178.523424,   0.135949,   0.115589,   0.704021,  -0.687344, 
32096,  -3.554768,  -9.237869,  -0.253108,  10.316322,  25.932762,  22.202596,   0.203280,   0.958039,  -0.795969, -153.000000, -190.500000, -424.500000,  20.739012, -91.101432, -178.800000,   0.135695,   0.118682,   0.703467,  -0.687431, 
32097,  -3.636614,  -9.046976,  -0.086572,   9.720127,  26.524010,  22.746116,   0.206161,   0.955684,  -0.805945, -151.500000, -192.000000, -427.500000,  20.975576, -91.105064, -179.085008,   0.135436,   0.121851,   0.702936,  -0.687472, 
32098,  -3.664079,  -9.235759,  -0.196085,  11.189129,  26.812126,  24.090266,   0.207625,   0.938393,  -0.808579, -150.000000, -198.000000, -427.500000,  21.224402, -91.097152, -179.371472,   0.135230,   0.125113,   0.702305,  -0.687569, 
32099,  -3.623867,  -9.214082,  -0.183968,  10.141572,  26.997626,  25.108966,   0.215261,   0.929248,  -0.801631, -145.500000, -201.000000, -424.500000,  21.469620, -91.109672, -179.668512,   0.134961,   0.128391,   0.701772,  -0.687556, 
32100,  -3.593910,  -8.975736,  -0.037811,  11.240988,  27.104304,  25.592932,   0.218346,   0.933320,  -0.796840, -144.000000, -199.500000, -423.000000,  21.731206, -91.095344, -179.956448,   0.134818,   0.131742,   0.701062,  -0.687685, 
32101,  -3.622682,  -9.209709,  -0.312612,  10.986211,  27.398640,  25.630168,   0.218362,   0.936127,  -0.787187, -144.000000, -198.000000, -420.000000,  21.968284, -91.105552, 179.741440,  -0.134466,  -0.134999,  -0.700485,   0.687699, 
32102,  -3.743956,  -8.854683,   0.018988,  11.334337,  27.768542,  25.057478,   0.226919,   0.942280,  -0.764317, -139.500000, -195.000000, -412.500000,  22.227678, -91.089256, 179.447856,  -0.134271,  -0.138366,  -0.699721,   0.687844, 
32103,  -3.877541,  -9.165449,  -0.361104,  12.085100,  28.204638,  25.439020,   0.222945,   0.928522,  -0.765726, -141.000000, -199.500000, -412.500000,  22.484600, -91.094624, 179.138704,  -0.133996,  -0.141787,  -0.699063,   0.687886, 
32104,  -4.178868,  -8.815701,   0.024625,  11.967765,  28.801010,  27.206318,   0.222024,   0.913223,  -0.781648, -141.000000, -205.500000, -417.000000,  22.798738, -91.078328, 178.833504,  -0.134064,  -0.145545,  -0.698178,   0.687979, 
32105,  -4.123065,  -9.325266,  -0.318781,  12.919581,  29.105508,  29.789580,   0.229830,   0.904892,  -0.779238, -136.500000, -208.500000, -415.500000,  23.108386, -91.084056, 178.511392,  -0.134032,  -0.149350,  -0.697394,   0.687967, 
32106,  -4.175591,  -8.911371,  -0.015546,  12.271232,  29.193626,  32.830036,   0.235780,   0.903803,  -0.794075, -133.500000, -210.000000, -420.000000,  23.457510, -91.083968, 178.190256,  -0.134239,  -0.153385,  -0.696494,   0.687937, 
32107,  -4.102681,  -9.215418,  -0.327997,  13.225398,  28.875682,  35.463188,   0.241389,   0.901085,  -0.799839, -130.500000, -211.500000, -421.500000,  23.814224, -91.092920, 177.864304,  -0.134477,  -0.157482,  -0.695619,   0.687862, 
32108,  -4.138109,  -8.860677,  -0.029986,  12.301600,  28.599800,  36.770956,   0.237790,   0.894569,  -0.791017, -132.000000, -213.000000, -418.500000,  24.184170, -91.097888, 177.542992,  -0.134818,  -0.161626,  -0.694677,   0.687783, 
32109,  -4.131835,  -8.914240,  -0.157451,  13.633636,  28.767742,  37.162836,   0.237807,   0.897376,  -0.781364, -132.000000, -211.500000, -415.500000,  24.567216, -91.087112, 177.227248,  -0.135251,  -0.165828,  -0.693609,   0.687783, 
32110,  -4.129355,  -8.792494,  -0.169743,  12.930041,  28.840978,  37.252124,   0.248527,   0.892303,  -0.769626, -126.000000, -213.000000, -411.000000,  24.931146, -91.095200, 176.901168,  -0.135531,  -0.169949,  -0.692634,   0.687695, 
32111,  -4.244187,  -8.788648,  -0.081482,  14.064277,  28.927798,  37.344488,   0.262284,   0.882883,  -0.782053, -118.500000, -217.500000, -414.000000,  25.315362, -91.085280, 176.581376,  -0.135948,  -0.174170,  -0.691515,   0.687696, 
32112,  -4.240783,  -8.955946,  -0.371931,  13.615582,  28.761322,  37.641188,   0.259182,   0.876004,  -0.796497, -120.000000, -220.500000, -418.500000,  25.676322, -91.106912, 176.246272,  -0.136175,  -0.178298,  -0.690558,   0.687537, 
32113,  -4.300800,  -8.652411,  -0.130795,  13.885652,  28.381088,  38.211800,   0.251268,   0.854101,  -0.780009, -123.000000, -226.500000, -412.500000,  26.057406, -91.106360, 175.924400,  -0.136575,  -0.182488,  -0.689443,   0.687485, 
32114,  -4.397421,  -8.901159,  -0.256799,  13.849117,  28.186248,  38.364588,   0.270837,   0.848390,  -0.783432, -112.500000, -229.500000, -412.500000,  26.436448, -91.117832, 175.598144,  -0.136954,  -0.186671,  -0.688370,   0.687369, 
32115,  -4.521108,  -8.503423,  -0.007810,  14.151294,  28.318038,  38.178796,   0.282771,   0.851825,  -0.793803, -106.500000, -229.500000, -415.500000,  26.840366, -91.108048, 175.283072,  -0.137517,  -0.190950,  -0.687116,   0.687332, 
32116,  -4.429220,  -8.661398,  -0.102250,  14.706147,  28.740504,  37.539696,   0.287883,   0.849470,  -0.776301, -103.500000, -229.500000, -409.500000,  27.223532, -91.097936, 174.962944,  -0.137920,  -0.195128,  -0.685853,   0.687321, 
32117,  -4.527541,  -8.516556,   0.077115,  15.211562,  29.248322,  36.170520,   0.294038,   0.854809,  -0.776371, -100.500000, -228.000000, -409.500000,  27.595630, -91.079528, 174.640304,  -0.138228,  -0.199262,  -0.684543,   0.687388, 
32118,  -4.584482,  -8.720932,  -0.162464,  15.782421,  29.454360,  34.962060,   0.293646,   0.844760,  -0.796253, -100.500000, -232.500000, -415.500000,  27.945266, -91.071488, 174.306816,  -0.138352,  -0.203313,  -0.683298,   0.687440, 
32119,  -4.613554,  -8.489297,  -0.092883,  15.620405,  29.478718,  34.429824,   0.300189,   0.819502,  -0.800691, -96.000000, -241.500000, -415.500000,  28.284394, -91.068760, 173.970384,  -0.138399,  -0.207300,  -0.682057,   0.687456, 
32120,  -4.693358,  -8.592793,  -0.192696,  16.264963,  29.475630,  34.114856,   0.307123,   0.804291,  -0.785245, -91.500000, -246.000000, -409.500000,  28.624932, -91.066720, 173.630848,  -0.138437,  -0.211306,  -0.680786,   0.687470, 
32121,  -4.710889,  -8.574507,  -0.136749,  16.091124,  29.216654,  33.838556,   0.309508,   0.802300,  -0.771957, -90.000000, -246.000000, -405.000000,  28.955050, -91.068792, 173.289904,  -0.138413,  -0.215250,  -0.679545,   0.687485, 
32122,  -4.793364,  -8.557980,  -0.123385,  16.026989,  29.027770,  33.986304,   0.315304,   0.803203,  -0.772604, -87.000000, -246.000000, -405.000000,  29.293802, -91.076752, 172.947984,  -0.138449,  -0.219239,  -0.678308,   0.687468, 
32123,  -4.655635,  -8.490697,  -0.201788,  16.679438,  28.705752,  33.348590,   0.319107,   0.816146,  -0.766659, -85.500000, -241.500000, -403.500000,  29.613834, -91.078968, 172.610512,  -0.138383,  -0.223087,  -0.677041,   0.687483, 
32124,  -4.857420,  -8.450628,  -0.088642,  15.771435,  28.322612,  32.036980,   0.319091,   0.813340,  -0.776311, -85.500000, -243.000000, -406.500000,  29.925080, -91.086176, 172.273760,  -0.138276,  -0.226864,  -0.675795,   0.687472, 
32125,  -4.888131,  -8.433728,  -0.141515,  16.622078,  27.807210,  31.556592,   0.323436,   0.793694,  -0.788921, -82.500000, -250.500000, -409.500000,  30.241252, -91.080352, 171.948672,  -0.138246,  -0.230613,  -0.674472,   0.687529, 
32126,  -5.114436,  -8.387098,  -0.077924,  15.710783,  27.489466,  31.441310,   0.330867,   0.778121,  -0.796741, -78.000000, -256.500000, -411.000000,  30.562026, -91.087432, 171.620272,  -0.138252,  -0.234389,  -0.673202,   0.687520, 
32127,  -5.153528,  -8.421412,  -0.147616,  16.888182,  27.072546,  32.399360,   0.333439,   0.779750,  -0.778337, -76.500000, -255.000000, -405.000000,  30.901082, -91.071424, 171.307408,  -0.138414,  -0.238197,  -0.671756,   0.687599, 
32128,  -5.177029,  -8.469769,  -0.114644,  15.745321,  26.750014,  33.764812,   0.338706,   0.775403,  -0.775025, -73.500000, -256.500000, -403.500000,  31.229334, -91.075440, 170.985968,  -0.138496,  -0.241955,  -0.670401,   0.687568, 
32129,  -5.274013,  -8.213129,  -0.032700,  16.481941,  26.374754,  34.941156,   0.352121,   0.764354,  -0.778378, -66.000000, -261.000000, -403.500000,  31.591108, -91.054504, 170.682192,  -0.138838,  -0.245828,  -0.668846,   0.687630, 
32130,  -5.229107,  -8.425776,  -0.213625,  15.786100,  25.835592,  35.891868,   0.349223,   0.763903,  -0.778054, -67.500000, -261.000000, -403.500000,  31.938170, -91.060616, 170.367312,  -0.139083,  -0.249644,  -0.667452,   0.687577, 
32131,  -5.298418,  -8.311430,  -0.186982,  16.060459,  24.918370,  36.990644,   0.338581,   0.742363,  -0.765780, -72.000000, -267.000000, -399.000000,  32.306636, -91.062680, 170.061936,  -0.139508,  -0.253525,  -0.665989,   0.687517, 
32132,  -5.338771,  -8.213329,  -0.101511,  15.356267,  24.302104,  37.352928,   0.346746,   0.738467,  -0.762792, -67.500000, -268.500000, -397.500000,  32.684806, -91.060584, 169.765792,  -0.140033,  -0.257394,  -0.664450,   0.687429, 
32133,  -5.380955,  -8.268572,  -0.173994,  15.713380,  23.847552,  37.925116,   0.346559,   0.734846,  -0.767907, -67.500000, -270.000000, -399.000000,  33.061634, -91.061480, 169.473392,  -0.140580,  -0.261224,  -0.662926,   0.687330, 
32134,  -5.389606,  -8.248337,  -0.090372,  14.868555,  23.052248,  38.586308,   0.352743,   0.705152,  -0.772921, -63.000000, -280.500000, -399.000000,  33.433528, -91.070000, 169.182864,  -0.141128,  -0.265002,  -0.661454,   0.687203, 
32135,  -5.344267,  -8.275739,  -0.212676,  14.946055,  22.032540,  39.268180,   0.364677,   0.708587,  -0.783292, -57.000000, -280.500000, -402.000000,  33.806692, -91.077488, 168.903024,  -0.141748,  -0.268721,  -0.659982,   0.687074, 
32136,  -5.526561,  -8.120740,  -0.050388,  14.045363,  21.018886,  39.531320,   0.366875,   0.702974,  -0.775118, -55.500000, -282.000000, -399.000000,  34.196088, -91.080472, 168.637040,  -0.142535,  -0.272440,  -0.658436,   0.686913, 
32137,  -5.706784,  -8.131890,  -0.192854,  14.034790,  20.294072,  39.853872,   0.363293,   0.699265,  -0.756645, -57.000000, -282.000000, -393.000000,  34.595668, -91.091800, 168.374928,  -0.143427,  -0.276175,  -0.656904,   0.686688, 
32138,  -5.810787,  -7.910958,  -0.101151,  13.773705,  19.948772,  40.445364,   0.361283,   0.708499,  -0.759703, -58.500000, -279.000000, -394.500000,  35.016648, -91.092872, 168.125600,  -0.144505,  -0.279965,  -0.655279,   0.686491, 
32139,  -5.900365,  -8.022955,  -0.198944,  14.128370,  19.708864,  42.020236,   0.368542,   0.692111,  -0.762985, -54.000000, -285.000000, -394.500000,  35.451600, -91.091944, 167.878144,  -0.145672,  -0.283812,  -0.653581,   0.686276, 
32140,  -5.780638,  -8.184693,  -0.131539,  14.211987,  19.308660,  43.827168,   0.375289,   0.673280,  -0.752655, -49.500000, -291.000000, -390.000000,  35.871624, -91.091928, 167.631216,  -0.146753,  -0.287562,  -0.651907,   0.686075, 
32141,  -5.854605,  -7.866794,  -0.063349,  13.162634,  18.888134,  44.623312,   0.374368,   0.657982,  -0.768577, -49.500000, -297.000000, -394.500000,  36.311920, -91.098120, 167.386672,  -0.147991,  -0.291400,  -0.650216,   0.685821, 
32142,  -5.872400,  -7.890192,  -0.117858,  14.680105,  19.054520,  45.374992,   0.382704,   0.654901,  -0.770127, -45.000000, -298.500000, -394.500000,  36.762080, -91.090160, 167.151104,  -0.149302,  -0.295242,  -0.648398,   0.685607, 
32143,  -5.958610,  -7.649016,  -0.005549,  13.945942,  19.192218,  45.298764,   0.387970,   0.650554,  -0.766815, -42.000000, -300.000000, -393.000000,  37.223312, -91.085064, 166.909360,  -0.150648,  -0.299163,  -0.646522,   0.685359, 
32144,  -5.856286,  -7.920374,  -0.305562,  15.240015,  19.224166,  44.780776,   0.386211,   0.633989,  -0.750397, -42.000000, -304.500000, -387.000000,  37.651820, -91.093296, 166.656608,  -0.151767,  -0.302942,  -0.644773,   0.685105, 
32145,  -5.874281,  -7.539839,  -0.111076,  14.237391,  18.789808,  43.267040,   0.385665,   0.625933,  -0.756090, -42.000000, -307.500000, -388.500000,  38.071044, -91.103320, 166.405152,  -0.152843,  -0.306652,  -0.643046,   0.684854, 
32146,  -5.918506,  -7.571607,  -0.161526,  15.057670,  18.757536,  41.567792,   0.388017,   0.618328,  -0.762106, -40.500000, -310.500000, -390.000000,  38.489536, -91.103504, 166.160656,  -0.153926,  -0.310317,  -0.641248,   0.684638, 
32147,  -6.004124,  -7.642078,  -0.141622,  15.034918,  18.920668,  39.622912,   0.394747,   0.596690,  -0.761428, -36.000000, -318.000000, -388.500000,  38.873116, -91.110160, 165.910064,  -0.154781,  -0.313810,  -0.639556,   0.684448, 
32148,  -6.101807,  -7.428848,   0.018188,  15.516681,  19.055710,  38.213008,   0.388609,   0.594158,  -0.751705, -39.000000, -318.000000, -385.500000,  39.261328, -91.099184, 165.668560,  -0.155669,  -0.317290,  -0.637747,   0.684332, 
32149,  -6.113539,  -7.499758,  -0.168898,  16.211325,  19.331600,  36.997480,   0.394063,   0.593432,  -0.743278, -36.000000, -318.000000, -382.500000,  39.628516, -91.095056, 165.418160,  -0.156392,  -0.320682,  -0.635987,   0.684208, 
32150,  -6.269109,  -7.479820,  -0.064995,  16.204975,  19.398048,  36.067376,   0.412199,   0.569980,  -0.749011, -25.500000, -327.000000, -382.500000,  39.985384, -91.087248, 165.166160,  -0.157032,  -0.324024,  -0.634213,   0.684121, 
32151,  -6.146929,  -7.416413,  -0.109483,  16.672180,  19.642868,  35.441556,   0.413817,   0.550697,  -0.765835, -24.000000, -334.500000, -387.000000,  40.328272, -91.082920, 164.908832,  -0.157567,  -0.327310,  -0.632476,   0.684050, 
32152,  -6.333098,  -7.508396,  -0.129819,  16.749575,  19.550678,  34.840268,   0.415080,   0.567625,  -0.758988, -24.000000, -328.500000, -385.500000,  40.663828, -91.083864, 164.645824,  -0.158040,  -0.330576,  -0.630768,   0.683977, 
32153,  -6.259563,  -7.420659,  -0.122719,  17.015236,  19.432568,  34.475572,   0.422527,   0.554858,  -0.757155, -19.500000, -333.000000, -384.000000,  40.994372, -91.090088, 164.379888,  -0.158477,  -0.333807,  -0.629064,   0.683868, 
32154,  -6.231341,  -7.384527,  -0.229304,  16.670511,  19.116346,  33.360882,   0.422745,   0.523447,  -0.756984, -18.000000, -343.500000, -382.500000,  41.305716, -91.106720, 164.108128,  -0.158792,  -0.336939,  -0.627438,   0.683728, 
32155,  -6.264826,  -7.187166,  -0.150337,  16.902486,  18.822112,  31.582806,   0.419488,   0.518560,  -0.757237, -19.500000, -345.000000, -382.500000,  41.616256, -91.109840, 163.849968,  -0.159145,  -0.340007,  -0.625767,   0.683654, 
32156,  -6.453043,  -7.236540,  -0.200167,  16.681276,  18.742938,  29.908002,   0.405186,   0.519923,  -0.750502, -27.000000, -343.500000, -381.000000,  41.914376, -91.123032, 163.585456,  -0.159418,  -0.343026,  -0.624166,   0.683559, 
32157,  -6.547696,  -7.140285,   0.042340,  17.078780,  18.890188,  29.305794,   0.405048,   0.524722,  -0.726660, -27.000000, -340.500000, -373.500000,  42.221880, -91.107000, 163.339776,  -0.159773,  -0.346027,  -0.622410,   0.683589, 
32158,  -6.665859,  -7.400137,  -0.104488,  17.310332,  18.835578,  29.168128,   0.418479,   0.516479,  -0.720359, -19.500000, -343.500000, -370.500000,  42.499552, -91.111704, 163.076128,  -0.159899,  -0.348923,  -0.620786,   0.683558, 
32159,  -6.666777,  -7.051028,  -0.029896,  17.741948,  19.084286,  29.290436,   0.420847,   0.511681,  -0.716724, -18.000000, -345.000000, -369.000000,  42.804952, -91.107120, 162.819088,  -0.160203,  -0.351930,  -0.619021,   0.683522, 
32160,  -6.922168,  -7.437344,  -0.191407,  18.273548,  19.223044,  30.578090,   0.424137,   0.522181,  -0.697165, -16.500000, -340.500000, -363.000000,  43.105856, -91.112568, 162.547904,  -0.160428,  -0.354973,  -0.617279,   0.683467, 
32161,  -6.951445,  -7.131248,  -0.124138,  18.280404,  19.439198,  32.853474,   0.434449,   0.504253,  -0.714961, -10.500000, -348.000000, -367.500000,  43.430296, -91.120416, 162.273248,  -0.160784,  -0.358150,  -0.615459,   0.683382, 
32162,  -6.821859,  -7.275250,  -0.188779,  19.367470,  19.465838,  35.085176,   0.424134,   0.481535,  -0.721414, -15.000000, -355.500000, -369.000000,  43.770448, -91.116320, 162.001488,  -0.161215,  -0.361398,  -0.613507,   0.683332, 
32163,  -6.927582,  -7.042100,  -0.130981,  18.170814,  19.477952,  36.925936,   0.423588,   0.473479,  -0.727106, -15.000000, -358.500000, -370.500000,  44.120268, -91.133704, 161.713472,  -0.161676,  -0.364743,  -0.611582,   0.683176, 
32164,  -6.865473,  -7.001504,  -0.170032,  19.739504,  19.437026,  38.334960,   0.439120,   0.483430,  -0.746299,  -7.500000, -357.000000, -376.500000,  44.503004, -91.124728, 161.443824,  -0.162359,  -0.368182,  -0.609425,   0.683080, 
32165,  -7.020644,  -6.967247,  -0.140477,  19.112286,  19.485394,  38.816272,   0.441847,   0.483067,  -0.742086,  -6.000000, -357.000000, -375.000000,  44.883580, -91.135984, 161.156192,  -0.162990,  -0.371671,  -0.607328,   0.682917, 
32166,  -7.117860,  -6.814528,  -0.067327,  20.315966,  19.753084,  39.521820,   0.433558,   0.453922,  -0.735828,  -9.000000, -366.000000, -372.000000,  45.294656, -91.121328, 160.884592,  -0.163814,  -0.375251,  -0.605000,   0.682817, 
32167,  -7.008401,  -6.924144,  -0.148618,  20.721928,  20.120690,  40.272572,   0.441006,   0.441155,  -0.733994,  -4.500000, -370.500000, -370.500000,  45.688872, -91.122128, 160.593248,  -0.164470,  -0.378817,  -0.602739,   0.682690, 
32168,  -7.006433,  -6.804383,  -0.045833,  20.876460,  20.248786,  41.042408,   0.442487,   0.426671,  -0.726976,  -3.000000, -375.000000, -367.500000,  46.086172, -91.114400, 160.304032,  -0.165131,  -0.382392,  -0.600411,   0.682613, 
32169,  -6.919698,  -7.074857,  -0.328060,  21.456748,  19.937834,  41.382696,   0.441240,   0.412550,  -0.724171,  -3.000000, -379.500000, -366.000000,  46.453332, -91.131936, 159.992896,  -0.165561,  -0.385870,  -0.598231,   0.682464, 
32170,  -6.757935,  -6.557655,  -0.117584,  20.957180,  19.604474,  40.326920,   0.440882,   0.408115,  -0.724749,  -3.000000, -381.000000, -366.000000,  46.832324, -91.135968, 159.697264,  -0.166106,  -0.389327,  -0.595952,   0.682335, 
32171,  -6.881739,  -6.780776,  -0.301019,  21.095638,  19.280042,  37.816228,   0.440572,   0.412099,  -0.696368,  -3.000000, -378.000000, -357.000000,  47.176904, -91.150360, 159.393840,  -0.166436,  -0.392629,  -0.593816,   0.682223, 
32172,  -6.974355,  -6.410916,  -0.064211,  20.927168,  19.233680,  35.620408,   0.445293,   0.399695,  -0.698749,   0.000000, -382.500000, -357.000000,  47.530584, -91.154304, 159.102640,  -0.166860,  -0.395922,  -0.591619,   0.682147, 
32173,  -7.152180,  -6.598476,  -0.186648,  21.798326,  19.348134,  34.030692,   0.456493,   0.391453,  -0.719928,   6.000000, -387.000000, -363.000000,  47.867648, -91.162144, 158.803424,  -0.167149,  -0.399154,  -0.589457,   0.682084, 
32174,  -7.184876,  -6.588461,  -0.098361,  21.937092,  19.407750,  33.572028,   0.460138,   0.365743,  -0.724041,   9.000000, -396.000000, -363.000000,  48.189308, -91.163432, 158.506656,  -0.167331,  -0.402279,  -0.587280,   0.682049, 
32175,  -7.170012,  -6.622181,  -0.111256,  22.279418,  19.282208,  33.530056,   0.446583,   0.340945,  -0.721094,   3.000000, -403.500000, -361.500000,  48.501232, -91.157144, 158.213648,  -0.167453,  -0.405342,  -0.585097,   0.682071, 
32176,  -7.335507,  -6.588529,  -0.051090,  21.754154,  19.177872,  33.766100,   0.444044,   0.344928,  -0.720193,   1.500000, -402.000000, -361.500000,  48.813036, -91.155920, 157.917584,  -0.167575,  -0.408406,  -0.582926,   0.682081, 
32177,  -7.387179,  -6.566896,  -0.132313,  22.790426,  19.000712,  34.383576,   0.455293,   0.345105,  -0.712414,   7.500000, -402.000000, -358.500000,  49.143020, -91.152160, 157.623136,  -0.167810,  -0.411551,  -0.580672,   0.682086, 
32178,  -7.297180,  -6.394197,  -0.089032,  22.369604,  19.010998,  34.466148,   0.466169,   0.338041,  -0.714865,  13.500000, -405.000000, -358.500000,  49.469436, -91.156168, 157.322208,  -0.168007,  -0.414674,  -0.578420,   0.682046, 
32179,  -7.355651,  -6.278411,  -0.118373,  23.089336,  19.143038,  33.934900,   0.465794,   0.330799,  -0.725095,  13.500000, -408.000000, -361.500000,  49.803020, -91.152064, 157.024448,  -0.168236,  -0.417814,  -0.576083,   0.682028, 
32180,  -7.414824,  -6.301561,  -0.075092,  23.430206,  19.187562,  32.931842,   0.462537,   0.325912,  -0.725348,  12.000000, -409.500000, -361.500000,  50.123476, -91.139904, 156.729392,  -0.168374,  -0.420881,  -0.573748,   0.682074, 
32181,  -7.671992,  -6.153924,   0.008402,  23.699010,  19.585536,  32.595696,   0.456587,   0.327001,  -0.710511,   9.000000, -408.000000, -357.000000,  50.459468, -91.139600, 156.420576,  -0.168570,  -0.424069,  -0.571368,   0.682070, 
32182,  -7.648462,  -6.130507,  -0.030094,  25.095990,  20.120160,  33.401912,   0.452629,   0.316049,  -0.702267,   7.500000, -411.000000, -354.000000,  50.809932, -91.124288, 156.114016,  -0.168811,  -0.427324,  -0.568833,   0.682115, 
32183,  -7.717950,  -6.121602,  -0.041753,  25.789862,  20.536838,  34.020364,   0.458643,   0.285541,  -0.702744,  12.000000, -421.500000, -352.500000,  51.155392, -91.122200, 155.786240,  -0.168938,  -0.430612,  -0.566279,   0.682111, 
32184,  -7.690766,  -6.140256,  -0.097695,  26.853970,  20.940350,  34.549828,   0.470406,   0.288161,  -0.708577,  18.000000, -421.500000, -354.000000,  51.504836, -91.118984, 155.449888,  -0.169036,  -0.433954,  -0.563659,   0.682129, 
32185,  -7.834124,  -6.054361,  -0.074049,  27.359588,  21.234994,  35.187244,   0.476560,   0.293499,  -0.708648,  21.000000, -420.000000, -354.000000,  51.854532, -91.109824, 155.110496,  -0.169097,  -0.437313,  -0.560982,   0.682193, 
32186,  -7.884898,  -6.011247,  -0.091382,  28.557924,  21.658370,  36.574328,   0.463176,   0.269516,  -0.710239,  15.000000, -427.500000, -354.000000,  52.222220, -91.091408, 154.769008,  -0.169219,  -0.440766,  -0.558151,   0.682279, 
32187,  -7.891373,  -6.254677,  -0.131793,  29.437508,  21.950070,  38.355896,   0.452723,   0.251597,  -0.692850,  10.500000, -432.000000, -348.000000,  52.575584, -91.079344, 154.410976,  -0.169174,  -0.444192,  -0.555313,   0.682358, 
32188,  -7.772708,  -5.887235,   0.026981,  29.156746,  22.021514,  40.033740,   0.462726,   0.237653,  -0.682266,  16.500000, -436.500000, -343.500000,  52.958748, -91.081168, 154.038496,  -0.169278,  -0.447796,  -0.552369,   0.682358, 
32189,  -7.768993,  -6.105929,  -0.166976,  30.220196,  21.942802,  40.391212,   0.470157,   0.222080,  -0.690085,  21.000000, -442.500000, -345.000000,  53.335400, -91.084176, 153.660832,  -0.169320,  -0.451382,  -0.549426,   0.682384, 
32190,  -7.673146,  -5.641215,   0.025530,  30.257246,  21.996520,  39.114212,   0.472355,   0.216467,  -0.681911,  22.500000, -444.000000, -342.000000,  53.729752, -91.087640, 153.282240,  -0.169464,  -0.455031,  -0.546383,   0.682379, 
32191,  -7.807920,  -5.736126,  -0.086752,  31.403168,  22.177738,  37.368192,   0.471671,   0.213209,  -0.663762,  22.500000, -444.000000, -336.000000,  54.109476, -91.082792, 152.903200,  -0.169479,  -0.458593,  -0.543307,   0.682415, 
32192,  -7.821779,  -5.492700,  -0.071082,  31.837984,  22.349266,  35.726336,   0.471141,   0.207959,  -0.659802,  22.500000, -445.500000, -334.500000,  54.479020, -91.085072, 152.511776,  -0.169391,  -0.462146,  -0.540254,   0.682465, 
32193,  -7.784143,  -5.709349,  -0.132195,  33.206848,  22.656390,  34.348600,   0.464441,   0.194564,  -0.665424,  19.500000, -450.000000, -336.000000,  54.815904, -91.074096, 152.122592,  -0.169068,  -0.465547,  -0.537252,   0.682634, 
32194,  -7.934270,  -5.737379,  -0.126383,  32.298848,  22.541342,  33.472058,   0.461526,   0.191306,  -0.674752,  18.000000, -451.500000, -339.000000,  55.112700, -91.080280, 151.714816,  -0.168457,  -0.468796,  -0.534404,   0.682787, 
32195,  -7.897906,  -5.678389,  -0.149809,  33.372730,  22.271200,  33.314702,   0.472230,   0.183426,  -0.672665,  24.000000, -454.500000, -337.500000,  55.425344, -91.072664, 151.320048,  -0.167960,  -0.472054,  -0.531437,   0.682955, 
32196,  -7.948809,  -5.707061,  -0.191979,  32.758502,  22.011920,  32.780190,   0.476950,   0.171023,  -0.675046,  27.000000, -459.000000, -337.500000,  55.712120, -91.083160, 150.909616,  -0.167292,  -0.475232,  -0.528612,   0.683111, 
32197,  -8.031994,  -5.402164,  -0.102358,  33.294204,  21.887036,  32.370956,   0.473507,   0.162515,  -0.680415,  25.500000, -462.000000, -339.000000,  56.030476, -91.083048, 150.511008,  -0.166843,  -0.478505,  -0.525630,   0.683269, 
32198,  -8.020904,  -5.666749,  -0.103374,  33.674572,  21.532512,  31.632972,   0.462678,   0.137354,  -0.673255,  21.000000, -469.500000, -336.000000,  56.321296, -91.065424, 150.123472,  -0.166216,  -0.481598,  -0.522673,   0.683509, 
32199,  -8.073302,  -5.243907,  -0.092591,  32.834202,  21.462456,  31.081920,   0.453860,   0.102959,  -0.663037,  18.000000, -480.000000, -331.500000,  56.619608, -91.071088, 149.720016,  -0.165636,  -0.484740,  -0.519731,   0.683648, 
32200,  -8.059825,  -5.476460,  -0.023272,  33.636744,  21.002484,  30.596188,   0.461511,   0.096620,  -0.646437,  22.500000, -481.500000, -325.500000,  56.911200, -91.036904, 149.351360,  -0.165055,  -0.487744,  -0.516719,   0.683938, 
32201,  -8.079373,  -5.262090,  -0.187600,  32.518428,  20.754836,  28.621308,   0.461698,   0.100241,  -0.641322,  22.500000, -480.000000, -324.000000,  57.182436, -91.053088, 148.944272,  -0.164337,  -0.490746,  -0.513917,   0.684088, 
32202,  -8.094770,  -5.197914,  -0.062884,  32.609990,  20.048224,  27.904824,   0.458800,   0.099790,  -0.640998,  21.000000, -480.000000, -324.000000,  57.467352, -91.037744, 148.571216,  -0.163767,  -0.493677,  -0.510990,   0.684302, 
32203,  -8.187749,  -5.462717,  -0.248872,  31.408072,  19.382288,  27.215426,   0.466777,   0.092273,  -0.643125,  25.500000, -483.000000, -324.000000,  57.707156, -91.058760, 148.173328,  -0.162934,  -0.496460,  -0.508358,   0.684458, 
32204,  -8.244720,  -5.023498,  -0.101653,  30.467916,  18.624868,  26.924720,   0.466044,   0.080596,  -0.653932,  25.500000, -487.500000, -327.000000,  57.981120, -91.058080, 147.811168,  -0.162426,  -0.499245,  -0.505583,   0.684607, 
32205,  -8.370708,  -5.190505,  -0.267952,  30.023332,  17.940532,  26.846746,   0.465156,   0.070910,  -0.650550,  25.500000, -490.500000, -325.500000,  58.245640, -91.071200, 147.444336,  -0.161892,  -0.501971,  -0.502893,   0.684711, 
32206,  -8.333274,  -4.886283,   0.027616,  28.685088,  17.260062,  27.124520,   0.472978,   0.065385,  -0.638487,  30.000000, -492.000000, -321.000000,  58.530828, -91.068256, 147.103088,  -0.161566,  -0.504681,  -0.500112,   0.684821, 
32207,  -8.397909,  -5.035753,  -0.168902,  28.878926,  16.885932,  27.111302,   0.472074,   0.052893,  -0.644757,  30.000000, -496.500000, -322.500000,  58.813156, -91.076440, 146.757232,  -0.161246,  -0.507376,  -0.497384,   0.684904, 
32208,  -8.351885,  -4.949313,  -0.039254,  27.653206,  16.211626,  26.903058,   0.475035,   0.023926,  -0.630720,  33.000000, -505.500000, -316.500000,  59.087048, -91.077896, 146.426880,  -0.160940,  -0.509968,  -0.494712,   0.685013, 
32209,  -8.326323,  -4.993474,  -0.180733,  27.020578,  15.515849,  26.239708,   0.469459,   0.032256,  -0.605652,  30.000000, -501.000000, -309.000000,  59.348424, -91.083144, 146.103440,  -0.160612,  -0.512444,  -0.492124,   0.685093, 
32210,  -8.383971,  -5.026310,  -0.192988,  25.553408,  14.579397,  25.101634,   0.470689,   0.043571,  -0.618109,  30.000000, -498.000000, -313.500000,  59.586436, -91.102352, 145.781344,  -0.160212,  -0.514782,  -0.489715,   0.685139, 
32211,  -8.330874,  -4.957974,  -0.194316,  24.480848,  13.661580,  24.307652,   0.470314,   0.036329,  -0.628339,  30.000000, -501.000000, -316.500000,  59.820672, -91.104200, 145.492288,  -0.159911,  -0.516982,  -0.487362,   0.685226, 
32212,  -8.448815,  -4.790323,  -0.160851,  22.344174,  12.826573,  23.573044,   0.460203,   0.020039,  -0.620025,  25.500000, -505.500000, -313.500000,  60.057872, -91.132952, 145.196160,  -0.159710,  -0.519181,  -0.485121,   0.685213, 
32213,  -8.434465,  -4.735559,  -0.088707,  21.805940,  12.176614,  23.216150,   0.465128,   0.014063,  -0.607638,  28.500000, -507.000000, -309.000000,  60.304384, -91.143760, 144.930656,  -0.159668,  -0.521308,  -0.482863,   0.685228, 
32214,  -8.626346,  -4.806174,  -0.148022,  20.571856,  11.510825,  22.929640,   0.478371,   0.002200,  -0.606453,  36.000000, -511.500000, -307.500000,  60.542600, -91.174176, 144.658224,  -0.159623,  -0.523385,  -0.480711,   0.685170, 
32215,  -8.756692,  -4.673775,  -0.197296,  20.360332,  11.152213,  24.034914,   0.477654,  -0.006670,  -0.607608,  36.000000, -514.500000, -307.500000,  60.800608, -91.193728, 144.405488,  -0.159763,  -0.525454,  -0.478476,   0.685094, 
32216,  -8.552080,  -4.649141,  -0.225853,  20.043956,  10.689425,  25.598438,   0.471295,  -0.018437,  -0.622305,  33.000000, -519.000000, -312.000000,  61.065980, -91.217432, 144.154032,  -0.159977,  -0.527537,  -0.476232,   0.684997, 
32217,  -8.629793,  -4.566449,  -0.035753,  19.760352,  10.599103,  25.202078,   0.467543,  -0.022960,  -0.599293,  31.500000, -519.000000, -304.500000,  61.332368, -91.215288, 143.928736,  -0.160236,  -0.529545,  -0.473945,   0.684977, 
32218,  -8.602004,  -4.648427,  -0.183143,  19.337116,  10.406015,  25.524700,   0.473168,  -0.022872,  -0.595404,  34.500000, -519.000000, -303.000000,  61.588992, -91.238152, 143.682096,  -0.160426,  -0.531564,  -0.471750,   0.684903, 
32219,  -8.605923,  -4.640883,  -0.100544,  19.610152,  10.172457,  25.201546,   0.475691,  -0.029662,  -0.605958,  36.000000, -522.000000, -306.000000,  61.841640, -91.230616, 143.466896,  -0.160640,  -0.533473,  -0.469533,   0.684920, 
32220,  -8.656417,  -4.555917,  -0.238961,  19.006482,   9.879255,  24.998224,   0.476829,  -0.045776,  -0.589864,  37.500000, -526.500000, -300.000000,  62.090128, -91.261504, 143.219920,  -0.160812,  -0.535415,  -0.467392,   0.684806, 
32221,  -8.546874,  -4.447920,  -0.082267,  18.720640,   9.520855,  24.362094,   0.472343,  -0.061977,  -0.577660,  36.000000, -531.000000, -295.500000,  62.343752, -91.266304, 143.002768,  -0.161073,  -0.537283,  -0.465204,   0.684753, 
32222,  -8.817072,  -4.465406,  -0.258982,  18.023352,   9.261947,  23.862448,   0.472343,  -0.061977,  -0.577660,  36.000000, -531.000000, -295.500000,  62.590368, -91.310656, 142.752848,  -0.161283,  -0.539197,  -0.463127,   0.684602, 
32223,  -8.846447,  -4.170807,  -0.045950,  18.407612,   9.166896,  24.587338,   0.474507,  -0.073203,  -0.588791,  37.500000, -535.500000, -298.500000,  62.876896, -91.325472, 142.535424,  -0.161793,  -0.541172,  -0.460834,   0.684480, 
32224,  -8.909307,  -4.401917,  -0.197068,  18.750558,   9.323606,  25.821012,   0.467823,  -0.083791,  -0.584761,  34.500000, -538.500000, -297.000000,  63.148916, -91.351744, 142.300704,  -0.162168,  -0.543138,  -0.458592,   0.684363, 
32225,  -8.901032,  -4.187116,  -0.054041,  18.680274,   9.347001,  26.891120,   0.467636,  -0.087412,  -0.589876,  34.500000, -540.000000, -298.500000,  63.437652, -91.368704, 142.073792,  -0.162646,  -0.545136,  -0.456240,   0.684247, 
32226,  -8.701016,  -4.425868,  -0.164844,  19.777372,   9.259157,  27.606578,   0.464379,  -0.092299,  -0.590130,  33.000000, -541.500000, -298.500000,  63.713152, -91.368992, 141.856560,  -0.163019,  -0.547045,  -0.453878,   0.684184, 
32227,  -8.646782,  -4.332208,  -0.122474,  18.454834,   9.143376,  26.980746,   0.459738,  -0.106509,  -0.563736,  31.500000, -544.500000, -289.500000,  63.962244, -91.387688, 141.624176,  -0.163229,  -0.548879,  -0.451675,   0.684109, 
32228,  -8.636353,  -4.035641,  -0.100948,  18.995862,   8.894520,  25.520194,   0.467715,  -0.114025,  -0.565863,  36.000000, -547.500000, -289.500000,  64.239608, -91.387328, 141.414896,  -0.163660,  -0.550752,  -0.449328,   0.684045, 
32229,  -8.709233,  -4.077111,  -0.203618,  18.826320,   8.814790,  23.758914,   0.462228,  -0.118912,  -0.593595,  33.000000, -550.500000, -298.500000,  64.490096, -91.411808, 141.181088,  -0.163902,  -0.552579,  -0.447138,   0.683961, 
32230,  -8.831644,  -4.034227,  -0.117747,  19.412522,   8.888937,  22.861582,   0.462774,  -0.110856,  -0.587902,  33.000000, -547.500000, -297.000000,  64.736656, -91.423904, 140.958208,  -0.164127,  -0.554358,  -0.444939,   0.683917, 
32231,  -8.933299,  -4.098245,  -0.107926,  19.844434,   9.100065,  22.591596,   0.468057,  -0.112396,  -0.574937,  36.000000, -547.500000, -292.500000,  64.976264, -91.437992, 140.727328,  -0.164269,  -0.556124,  -0.442735,   0.683878, 
32232,  -8.911282,  -3.972554,  -0.060463,  20.594700,   9.473535,  22.902398,   0.460639,  -0.134662,  -0.581715,  33.000000, -555.000000, -294.000000,  65.219544, -91.438920, 140.502128,  -0.164404,  -0.557887,  -0.440452,   0.683873, 
32233,  -8.930481,  -3.997839,  -0.085410,  21.463240,   9.651062,  23.219724,   0.463146,  -0.144260,  -0.601921,  34.500000, -559.500000, -300.000000,  65.459412, -91.442992, 140.264400,  -0.164458,  -0.559671,  -0.438135,   0.683878, 
32234,  -8.981896,  -3.960891,   0.036330,  22.090428,   9.721967,  23.452236,   0.453564,  -0.155299,  -0.597566,  30.000000, -562.500000, -298.500000,  65.700248, -91.421792, 140.043600,  -0.164496,  -0.561426,  -0.435742,   0.683960, 
32235,  -8.943065,  -4.196416,  -0.046098,  22.881024,   9.938362,  24.380532,   0.455607,  -0.158920,  -0.575203,  31.500000, -562.500000, -291.000000,  65.922820, -91.398032, 139.816992,  -0.164377,  -0.563134,  -0.433392,   0.684088, 
32236,  -9.028567,  -4.179924,  -0.147773,  22.531786,   9.920679,  25.410088,   0.460532,  -0.164896,  -0.562816,  34.500000, -564.000000, -286.500000,  66.141380, -91.405456, 139.559392,  -0.164202,  -0.564894,  -0.431090,   0.684149, 
32237,  -9.011296,  -3.787054,  -0.130721,  22.478760,   9.549151,  26.379566,   0.459627,  -0.177389,  -0.569086,  34.500000, -568.500000, -288.000000,  66.414176, -91.439552, 139.281392,  -0.164364,  -0.566869,  -0.428563,   0.684061, 
32238,  -9.006360,  -3.907910,  -0.153718,  22.860442,   9.404352,  26.650024,   0.461074,  -0.197485,  -0.581373,  36.000000, -576.000000, -291.000000,  66.685348, -91.454776, 139.019008,  -0.164515,  -0.568788,  -0.425996,   0.684018, 
32239,  -9.188562,  -3.789822,  -0.162733,  23.036358,   9.659613,  27.362398,   0.456759,  -0.212872,  -0.573706,  34.500000, -580.500000, -288.000000,  66.960516, -91.488368, 138.737296,  -0.164667,  -0.570757,  -0.423414,   0.683932, 
32240,  -9.274689,  -3.702648,  -0.069020,  24.297200,  10.023059,  29.237442,   0.447536,  -0.219477,  -0.568774,  30.000000, -582.000000, -286.500000,  67.267048, -91.501320, 138.466560,  -0.164975,  -0.572819,  -0.420602,   0.683876, 
32241,  -9.248141,  -3.672429,  -0.240999,  24.950546,  10.363354,  31.921522,   0.451322,  -0.209340,  -0.572481,  31.500000, -579.000000, -288.000000,  67.584696, -91.539256, 138.160224,  -0.165264,  -0.575001,  -0.417695,   0.683770, 
32242,  -9.327353,  -3.484142,   0.050342,  26.278008,  10.421285,  33.807340,   0.456947,  -0.209252,  -0.568591,  34.500000, -579.000000, -286.500000,  67.941752, -91.521656, 137.897792,  -0.165774,  -0.577218,  -0.414462,   0.683744, 
32243,  -9.163413,  -3.872736,  -0.118930,  27.805038,  10.500659,  35.723784,   0.450963,  -0.213775,  -0.573058,  31.500000, -580.500000, -288.000000,  68.276920, -91.502392, 137.621424,  -0.166058,  -0.579392,  -0.411246,   0.683769, 
32244,  -9.153147,  -3.780901,  -0.058725,  27.456254,  10.506927,  37.186984,   0.447740,  -0.213050,  -0.554007,  30.000000, -579.000000, -282.000000,  68.602704, -91.486448, 137.336992,  -0.166253,  -0.581545,  -0.408047,   0.683808, 
32245,  -9.134048,  -3.544252,  -0.142094,  28.039640,  10.307287,  38.037916,   0.448503,  -0.236404,  -0.548143,  31.500000, -586.500000, -279.000000,  68.970224, -91.484248, 137.040368,  -0.166699,  -0.583850,  -0.404647,   0.683767, 
32246,  -9.127454,  -3.424692,  -0.153242,  28.237560,  10.096514,  37.691132,   0.440572,  -0.261114,  -0.541308,  28.500000, -594.000000, -276.000000,  69.343104, -91.504928, 136.718208,  -0.167140,  -0.586201,  -0.401205,   0.683665, 
32247,  -9.192256,  -3.280562,  -0.086872,  29.149188,  10.400002,  37.529608,   0.436086,  -0.277315,  -0.529104,  27.000000, -598.500000, -271.500000,  69.730024, -91.512056, 136.403328,  -0.167642,  -0.588581,  -0.397640,   0.683594, 
32248,  -9.295280,  -3.251360,  -0.065194,  30.494108,  10.614316,  37.910852,   0.441661,  -0.285646,  -0.554172,  30.000000, -603.000000, -279.000000,  70.122064, -91.527504, 136.068752,  -0.168099,  -0.591003,  -0.393976,   0.683507, 
32249,  -9.327765,  -3.283581,  -0.074901,  31.744092,  10.838331,  39.184732,   0.441458,  -0.292074,  -0.568939,  30.000000, -606.000000, -283.500000,  70.513216, -91.535464, 135.728208,  -0.168476,  -0.593429,  -0.390225,   0.683456, 
32250,  -9.285892,  -3.272222,  -0.165335,  32.401234,  10.882325,  40.164572,   0.443501,  -0.295695,  -0.546576,  31.500000, -606.000000, -276.000000,  70.904328, -91.559064, 135.362528,  -0.168784,  -0.595892,  -0.386422,   0.683389, 
32251,  -9.228850,  -3.052909,  -0.083449,  32.814454,  10.735233,  40.386988,   0.435181,  -0.289807,  -0.535374,  27.000000, -603.000000, -273.000000,  71.313352, -91.594592, 134.982032,  -0.169179,  -0.598430,  -0.382509,   0.683297, 
32252,  -9.085070,  -3.166641,  -0.038914,  33.466808,  10.530765,  39.930256,   0.425241,  -0.305283,  -0.531597,  22.500000, -607.500000, -271.500000,  71.700680, -91.570208, 134.653056,  -0.169434,  -0.600782,  -0.378602,   0.683350, 
32253,  -9.196790,  -3.369723,  -0.114705,  33.456066,  10.356246,  39.621468,   0.420909,  -0.323477,  -0.533583,  21.000000, -613.500000, -271.500000,  72.057328, -91.577848, 134.291568,  -0.169474,  -0.603062,  -0.374854,   0.683371, 
32254,  -9.144863,  -3.036543,  -0.099074,  32.211746,   9.973259,  38.575948,   0.425100,  -0.341130,  -0.532003,  24.000000, -619.500000, -270.000000,  72.420040, -91.616280, 133.907424,  -0.169581,  -0.605375,  -0.371131,   0.683331, 
32255,  -9.171762,  -2.797842,  -0.091702,  32.094052,   9.458863,  37.467000,   0.430024,  -0.347106,  -0.519616,  27.000000, -621.000000, -265.500000,  72.805104, -91.659608, 133.527056,  -0.169875,  -0.607719,  -0.367327,   0.683252, 
32256,  -9.274933,  -2.776460,  -0.136588,  31.825054,   9.093395,  36.420932,   0.422949,  -0.367743,  -0.535468,  24.000000, -628.500000, -270.000000,  73.178400, -91.698192, 133.154112,  -0.170115,  -0.609974,  -0.363576,   0.683185, 
32257,  -9.278477,  -2.810399,  -0.097227,  31.963482,   8.969586,  35.655356,   0.418805,  -0.382316,  -0.532339,  22.500000, -633.000000, -268.500000,  73.531776, -91.717184, 132.801288,  -0.170249,  -0.612102,  -0.359903,   0.683169, 
32258,  -9.375392,  -2.769146,  -0.178774,  31.519930,   8.881629,  35.067752,   0.416844,  -0.364662,  -0.506440,  21.000000, -625.500000, -261.000000,  73.870864, -91.756888, 132.429608,  -0.170299,  -0.614205,  -0.356323,   0.683151, 
32259,  -9.196966,  -2.277854,  -0.017765,  31.139514,   8.612746,  33.333668,   0.417094,  -0.390460,  -0.486964,  22.500000, -633.000000, -253.500000,  74.242152, -91.800968, 132.060808,  -0.170587,  -0.616365,  -0.352600,   0.683080, 
32260,  -9.166837,  -2.840786,   0.040436,  32.375016,   8.308722,  31.639964,   0.417654,  -0.420243,  -0.495868,  24.000000, -643.500000, -255.000000,  74.551096, -91.704800, 131.820264,  -0.170506,  -0.618137,  -0.349055,   0.683328, 
32261,  -9.179593,  -2.905141,  -0.209276,  30.376146,   8.015922,  29.328702,   0.409677,  -0.412726,  -0.493741,  19.500000, -640.500000, -255.000000,  74.798432, -91.767344, 131.430528,  -0.170014,  -0.619921,  -0.345970,   0.683379, 
32262,  -9.145789,  -2.293210,   0.183851,  30.015038,   7.678977,  27.630368,   0.422157,  -0.401235,  -0.498420,  25.500000, -637.500000, -256.500000,  75.093160, -91.718528, 131.167040,  -0.169961,  -0.621616,  -0.342642,   0.683527, 
32263,  -9.207454,  -2.725983,  -0.204641,  30.067998,   7.426927,  25.320192,   0.415831,  -0.407388,  -0.493811,  22.500000, -639.000000, -255.000000,  75.327096, -91.719056, 130.851960,  -0.169503,  -0.623214,  -0.339657,   0.683691, 
32264,  -9.405847,  -2.412764,  -0.102627,  27.869714,   7.138546,  23.593776,   0.404661,  -0.434178,  -0.477577,  18.000000, -646.500000, -249.000000,  75.553928, -91.798424, 130.473376,  -0.169048,  -0.624837,  -0.336822,   0.683714, 
32265,  -9.359704,  -2.319200,   0.008730,  28.785688,   6.741904,  22.978912,   0.411767,  -0.448573,  -0.466669,  22.500000, -651.000000, -244.500000,  75.803368, -91.760504, 130.218488,  -0.168831,  -0.626325,  -0.333832,   0.683878, 
32266,  -9.522227,  -2.584517,  -0.278891,  27.204078,   6.548716,  22.757888,   0.406329,  -0.445041,  -0.465444,  19.500000, -649.500000, -244.500000,  76.002632, -91.833704, 129.855512,  -0.168272,  -0.627813,  -0.331185,   0.683943, 
32267,  -9.653528,  -2.332234,   0.031909,  26.331390,   6.136482,  23.515514,   0.389267,  -0.448928,  -0.482227,  10.500000, -651.000000, -250.500000,  76.232672, -91.817312, 129.596176,  -0.168028,  -0.629200,  -0.328392,   0.684072, 
32268,  -9.554552,  -2.368898,  -0.169804,  25.777206,   5.858618,  24.601040,   0.394516,  -0.456081,  -0.488568,  13.500000, -654.000000, -252.000000,  76.469360, -91.857736, 129.287752,  -0.167843,  -0.630651,  -0.325626,   0.684103, 
32269,  -9.616274,  -2.261332,  -0.043896,  24.414520,   5.494976,  25.945930,   0.399783,  -0.460428,  -0.485256,  16.500000, -655.500000, -250.500000,  76.714048, -91.890888, 128.996048,  -0.167764,  -0.632064,  -0.322854,   0.684115, 
32270,  -9.644346,  -2.235234,  -0.034645,  24.556416,   5.287251,  27.144812,   0.398724,  -0.470928,  -0.477336,  16.500000, -658.500000, -247.500000,  76.984328, -91.866488, 128.767856,  -0.167905,  -0.633445,  -0.319944,   0.684171, 
32271,  -9.599808,  -2.179064,  -0.148766,  23.582862,   5.106862,  27.966366,   0.393162,  -0.500436,  -0.466864,  15.000000, -667.500000, -243.000000,  77.252944, -91.909392, 128.476592,  -0.168033,  -0.634892,  -0.317093,   0.684141, 
32272,  -9.541001,  -1.991510,  -0.081511,  23.381768,   4.834224,  28.490184,   0.381570,  -0.502242,  -0.465568,   9.000000, -667.500000, -243.000000,  77.546736, -91.913344, 128.231200,  -0.168370,  -0.636313,  -0.314113,   0.684115, 
32273,  -9.520957,  -2.066026,  -0.093806,  23.345278,   4.565908,  28.189114,   0.381570,  -0.502242,  -0.465568,   9.000000, -667.500000, -243.000000,  77.832632, -91.915392, 127.988272,  -0.168663,  -0.637697,  -0.311173,   0.684101, 
32274,  -9.553194,  -2.000982,  -0.045609,  22.630910,   4.370905,  28.003720,   0.391370,  -0.522613,  -0.469752,  15.000000, -675.000000, -243.000000,  78.108760, -91.926712, 127.741472,  -0.168924,  -0.639031,  -0.308311,   0.684072, 
32275,  -9.600535,  -2.030861,  -0.081392,  22.285876,   4.257310,  28.250288,   0.390873,  -0.522250,  -0.446487,  15.000000, -673.500000, -235.500000,  78.385968, -91.947032, 127.489008,  -0.169209,  -0.640361,  -0.305462,   0.684031, 
32276,  -9.553167,  -1.921451,  -0.231456,  21.707310,   3.984413,  28.552374,   0.385965,  -0.513468,  -0.449221,  12.000000, -670.500000, -237.000000,  78.669664, -92.057880, 127.154336,  -0.169551,  -0.641784,  -0.302653,   0.683874, 
32277,  -9.529757,  -1.811856,  -0.110814,  21.320602,   3.867016,  28.032552,   0.380153,  -0.517177,  -0.458226,   9.000000, -672.000000, -240.000000,  78.956800, -92.132240, 126.861120,  -0.169958,  -0.643136,  -0.299828,   0.683747, 
32278,  -9.542925,  -1.804131,  -0.105595,  20.959964,   3.785280,  27.539760,   0.369528,  -0.535911,  -0.436299,   4.500000, -676.500000, -232.500000,  79.236104, -92.211576, 126.565456,  -0.170333,  -0.644456,  -0.297058,   0.683628, 
32279,  -9.630378,  -1.845622,  -0.164701,  20.897664,   3.563009,  27.535128,   0.362844,  -0.546499,  -0.432268,   1.500000, -679.500000, -231.000000,  79.510936, -92.297640, 126.265232,  -0.170691,  -0.645738,  -0.294316,   0.683496, 
32280,  -9.551744,  -1.648693,  -0.097883,  20.441036,   3.357868,  27.221848,   0.369324,  -0.542338,  -0.451066,   4.500000, -679.500000, -237.000000,  79.790920, -92.351264, 126.001440,  -0.171118,  -0.646979,  -0.291553,   0.683398, 
32281,  -9.606416,  -1.553933,  -0.091734,  20.656560,   3.428112,  27.138442,   0.372205,  -0.544693,  -0.461043,   6.000000, -681.000000, -240.000000,  80.077168, -92.407720, 125.735584,  -0.171589,  -0.648229,  -0.288756,   0.683301, 
32282,  -9.755512,  -1.527921,  -0.090467,  21.066604,   3.232090,  27.261316,   0.358667,  -0.566685,  -0.448444,   0.000000, -687.000000, -235.500000,  80.363800, -92.474704, 125.456416,  -0.172042,  -0.649475,  -0.285935,   0.683192, 
32283,  -9.713332,  -1.486720,  -0.094255,  21.898096,   3.234693,  28.149520,   0.365960,  -0.577459,  -0.432421,   4.500000, -690.000000, -229.500000,  80.655992, -92.519024, 125.193928,  -0.172501,  -0.650712,  -0.283036,   0.683113, 
32284,  -9.773197,  -1.328762,  -0.059184,  22.275554,   3.335822,  28.964846,   0.374279,  -0.583347,  -0.443623,   9.000000, -693.000000, -232.500000,  80.962192, -92.597616, 124.891648,  -0.173002,  -0.652001,  -0.280025,   0.682987, 
32285,  -9.717178,  -1.426077,   0.034412,  23.905694,   3.336454,  29.827004,   0.362328,  -0.589589,  -0.442905,   3.000000, -694.500000, -232.500000,  81.268776, -92.562696, 124.690440,  -0.173462,  -0.653204,  -0.276906,   0.682991, 
32286,  -9.721324,  -1.389228,  -0.070052,  24.324954,   3.266820,  30.317750,   0.346950,  -0.601531,  -0.437902,  -4.500000, -697.500000, -231.000000,  81.573416, -92.652448, 124.354608,  -0.173822,  -0.654533,  -0.273771,   0.682911, 
32287,  -9.690634,  -1.413138,   0.009832,  25.432950,   3.309344,  30.435148,   0.340625,  -0.607685,  -0.433294,  -7.500000, -699.000000, -229.500000,  81.876968, -92.616568, 124.136168,  -0.174154,  -0.655736,  -0.270550,   0.682940, 
32288,  -9.807945,  -1.244044,  -0.098926,  26.461462,   3.202977,  30.975466,   0.348805,  -0.608773,  -0.420654,  -3.000000, -699.000000, -225.000000,  82.191896, -92.698576, 123.792008,  -0.174484,  -0.657077,  -0.267246,   0.682884, 
32289,  -9.775792,  -1.146307,  -0.011735,  27.576418,   3.245393,  32.046398,   0.354756,  -0.609862,  -0.435491,   0.000000, -700.500000, -229.500000,  82.520576, -92.750880, 123.466176,  -0.174834,  -0.658416,  -0.263778,   0.682845, 
32290,  -9.901412,  -1.145776,   0.011984,  29.292246,   3.269827,  33.157470,   0.348431,  -0.616015,  -0.430884,  -3.000000, -702.000000, -228.000000,  82.855816, -92.741720, 123.186016,  -0.175144,  -0.659744,  -0.260163,   0.682878, 
32291,  -9.875754,  -1.064882,  -0.080097,  30.656126,   3.291511,  34.734572,   0.341046,  -0.632668,  -0.418356,  -6.000000, -706.500000, -223.500000,  83.204680, -92.820544, 122.802520,  -0.175428,  -0.661172,  -0.256388,   0.682851, 
32292,  -9.783303,  -1.141771,   0.142703,  32.102440,   3.081426,  35.865584,   0.343072,  -0.639096,  -0.405645,  -4.500000, -708.000000, -219.000000,  83.558464, -92.691288, 122.613472,  -0.175697,  -0.662467,  -0.252457,   0.682979, 
32293,  -9.809345,  -1.147740,  -0.015133,  33.093644,   3.122251,  36.762028,   0.343260,  -0.635475,  -0.400529,  -4.500000, -706.500000, -217.500000,  83.904368, -92.675720, 122.297264,  -0.175819,  -0.663848,  -0.248512,   0.683069, 
32294,  -9.773686,  -1.034564,  -0.011184,  33.745348,   2.802301,  37.697644,   0.330046,  -0.658644,  -0.406659, -10.500000, -714.000000, -219.000000,  84.264416, -92.640704, 121.994632,  -0.175992,  -0.665225,  -0.244436,   0.683152, 
32295,  -9.730080,  -1.045152,   0.008608,  34.598584,   2.722962,  38.225872,   0.326089,  -0.669595,  -0.398415, -12.000000, -717.000000, -216.000000,  84.632064, -92.593152, 121.697384,  -0.176166,  -0.666595,  -0.240263,   0.683234, 
32296,  -9.842267,  -0.935084,   0.029093,  34.659764,   2.575447,  38.983012,   0.329175,  -0.665523,  -0.393624, -10.500000, -715.500000, -214.500000,  85.006568, -92.702264, 121.238528,  -0.176333,  -0.668058,  -0.236036,   0.683241, 
32297,  -9.906281,  -0.838478,  -0.018793,  35.558992,   2.218828,  40.594696,   0.337152,  -0.673040,  -0.395751,  -6.000000, -718.500000, -214.500000,  85.398104, -92.809368, 120.777888,  -0.176584,  -0.669528,  -0.231678,   0.683249, 
32298,  -9.821434,  -0.795565,  -0.047377,  36.058012,   2.034891,  41.773756,   0.330468,  -0.683628,  -0.391720,  -9.000000, -721.500000, -213.000000,  85.803480, -93.002544, 120.224448,  -0.176868,  -0.671022,  -0.227192,   0.683207, 
32299,  -9.810368,  -0.633243,  -0.148037,  36.452772,   1.838852,  42.469888,   0.317646,  -0.696748,  -0.377967, -15.000000, -724.500000, -208.500000,  86.218768, -93.335008, 119.527280,  -0.177177,  -0.672551,  -0.222619,   0.683122, 
32300,  -9.827097,  -0.505970,  -0.054894,  36.789236,   1.496452,  42.929740,   0.310074,  -0.717023,  -0.370554, -18.000000, -730.500000, -205.500000,  86.649288, -93.595536, 118.899512,  -0.177574,  -0.674011,  -0.217914,   0.683066, 
32301,  -9.741156,  -0.438340,  -0.030404,  37.423060,   1.278868,  43.190076,   0.298140,  -0.720458,  -0.360183, -24.000000, -730.500000, -202.500000,  87.086240, -93.946008, 118.175808,  -0.177983,  -0.675501,  -0.213137,   0.683047, 
32302,  -9.736500,  -0.376317,  -0.062393,  37.771680,   1.033180,  43.236932,   0.299604,  -0.737748,  -0.362817, -22.500000, -736.500000, -202.500000,  87.521248, -94.405160, 117.338432,  -0.178341,  -0.676921,  -0.208318,   0.683002, 
32303,  -9.643349,  -0.494906,  -0.049123,  37.692612,   0.691423,  42.857696,   0.300709,  -0.759474,  -0.366028, -21.000000, -744.000000, -202.500000,  87.941112, -95.057632, 116.306624,  -0.178604,  -0.678297,  -0.203575,   0.682982, 
32304,  -9.593191,  -0.361868,  -0.200003,  36.608988,   0.423088,  41.690268,   0.298887,  -0.746619,  -0.363971, -22.500000, -739.500000, -202.500000,  88.346144, -96.528344, 114.462456,  -0.178802,  -0.679711,  -0.198962,   0.682893, 
32305,  -9.672006,  -0.248479,  -0.026087,  36.018320,   0.067938,  40.778144,   0.285473,  -0.735570,  -0.360619, -30.000000, -735.000000, -202.500000,  88.751968, -98.582144, 112.044776,  -0.179081,  -0.681037,  -0.194377,   0.682842, 
32306,  -9.722466,  -0.052972,  -0.148232,  35.860892,  -0.021247,  39.689864,   0.280611,  -0.759013,  -0.358645, -31.500000, -742.500000, -201.000000,  89.151208, -102.972224, 107.293584,  -0.179348,  -0.682338,  -0.189816,   0.682733, 
32307,  -9.719592,  -0.003440,  -0.061947,  36.062108,  -0.406715,  39.199808,   0.281000,  -0.789611,  -0.363012, -30.000000, -753.000000, -201.000000,  89.535648, -113.758264,  96.147520,  -0.179610,  -0.683567,  -0.185273,   0.682690, 
32308,  -9.713481,   0.061634,  -0.149267,  36.277044,  -0.658786,  38.708388,   0.274348,  -0.794586,  -0.339676, -33.000000, -753.000000, -193.500000,  89.815488, -170.337200,  39.206536,  -0.179815,  -0.684754,  -0.180757,   0.682681, 
32309,  -9.663495,   0.120844,  -0.074035,  36.265568,  -0.912414,  37.808320,   0.265671,  -0.793134,  -0.329051, -37.500000, -751.500000, -190.500000,  89.599448, 117.038360, -33.782792,   0.179954,   0.685923,   0.176259,  -0.682639, 
32310,  -9.677178,   0.138621,  -0.000223,  36.671052,  -1.032436,  37.130860,   0.261527,  -0.807706,  -0.325923, -39.000000, -756.000000, -189.000000,  89.246968, 102.860576, -48.326796,   0.180044,   0.686955,   0.171783,  -0.682697, 
32311,  -9.694991,   0.190128,   0.022826,  36.829396,  -1.244634,  36.485784,   0.264424,  -0.807255,  -0.326247, -37.500000, -756.000000, -189.000000,  88.885480,  97.951504, -53.605392,   0.180070,   0.687973,   0.167333,  -0.682782, 
32312,  -9.581604,   0.173480,   0.112644,  36.917344,  -1.547079,  35.749364,   0.256260,  -0.803359,  -0.329234, -42.000000, -754.500000, -190.500000,  88.534864,  95.107368, -56.819912,   0.180019,   0.688876,   0.162938,  -0.682946, 
32313,  -9.603330,   0.208117,   0.035587,  36.500296,  -1.705624,  34.315640,   0.257911,  -0.817029,  -0.326754, -40.500000, -759.000000, -189.000000,  88.197232,  93.657904, -58.638068,   0.179870,   0.689770,   0.158654,  -0.683076, 
32314,  -9.535118,   0.297180,  -0.092892,  35.914764,  -1.872136,  32.599484,   0.252862,  -0.844093,  -0.329895, -42.000000, -768.000000, -189.000000,  87.872376,  93.017104, -59.642740,   0.179649,   0.690695,   0.154500,  -0.683156, 
32315,  -9.566382,   0.374124,  -0.055302,  34.976932,  -2.029891,  30.502482,   0.244340,  -0.844634,  -0.333460, -46.500000, -768.000000, -190.500000,  87.560008,  92.541712, -60.473412,   0.179407,   0.691575,   0.150469,  -0.683258, 
32316,  -9.791696,   0.857590,   0.038954,  34.740816,  -2.124620,  29.649176,   0.238935,  -0.835488,  -0.312930, -49.500000, -763.500000, -184.500000,  87.235792,  92.097912, -61.266808,   0.179269,   0.692397,   0.146386,  -0.683330, 
32317,  -9.771626,   0.557253,  -0.245560,  36.008604,  -2.411267,  29.832106,   0.238047,  -0.845173,  -0.309547, -49.500000, -766.500000, -183.000000,  86.920312,  92.001544, -61.721848,   0.179004,   0.693285,   0.142321,  -0.683360, 
32318,  -9.749313,   0.494801,  -0.077239,  36.522684,  -2.537238,  29.783320,   0.246616,  -0.876860,  -0.301273, -43.500000, -777.000000, -178.500000,  86.614592,  91.695816, -62.390872,   0.178673,   0.694053,   0.138259,  -0.683486, 
32319,  -9.709601,   0.777989,   0.083774,  36.459872,  -2.776282,  29.978544,   0.240649,  -0.878577,  -0.296087, -46.500000, -777.000000, -177.000000,  86.305256,  91.408240, -63.043812,   0.178359,   0.694812,   0.134159,  -0.683643, 
32320,  -9.616902,   0.665836,   0.132191,  36.106220,  -3.018082,  29.500390,   0.233731,  -0.860561,  -0.301881, -51.000000, -771.000000, -180.000000,  86.017584,  91.127664, -63.690836,   0.177907,   0.695485,   0.130172,  -0.683832, 
32321,  -9.581376,   0.509844,   0.046776,  35.523912,  -3.085910,  28.143816,   0.216407,  -0.892689,  -0.285576, -58.500000, -780.000000, -174.000000,  85.751576,  90.823720, -64.356436,   0.177363,   0.696087,   0.126338,  -0.684088, 
32322,  -9.578620,   0.567770,   0.033262,  34.323932,  -3.154165,  26.423604,   0.223561,  -0.898665,  -0.245710, -54.000000, -780.000000, -160.500000,  85.499336,  90.644888, -64.887228,   0.176782,   0.696676,   0.122651,  -0.684299, 
32323,  -9.641440,   0.474906,  -0.100645,  32.421254,  -3.096955,  24.567340,   0.223545,  -0.901472,  -0.255362, -54.000000, -781.500000, -163.500000,  85.286360,  90.534640, -65.333876,   0.176052,   0.697206,   0.119300,  -0.684520, 
32324,  -9.601843,   0.863175,  -0.199823,  30.904244,  -3.056635,  23.063140,   0.214989,  -0.907624,  -0.278233, -58.500000, -784.500000, -171.000000,  85.042408,  90.642344, -65.543792,   0.175597,   0.697851,   0.115897,  -0.684562, 
32325,  -9.626587,   0.876763,  -0.144523,  29.891816,  -3.185285,  21.796478,   0.202680,  -0.918301,  -0.278092, -64.500000, -787.500000, -171.000000,  84.810432,  90.772000, -65.720200,   0.175137,   0.698478,   0.112639,  -0.684593, 
32326,  -9.641615,   1.103735,  -0.139759,  29.447596,  -3.127235,  20.765666,   0.199798,  -0.915947,  -0.268116, -66.000000, -786.000000, -168.000000,  84.569672,  90.892824, -65.898720,   0.174771,   0.699099,   0.109368,  -0.684603, 
32327,  -9.661620,   1.142046,  -0.042505,  29.257786,  -3.261538,  20.508804,   0.199473,  -0.914769,  -0.249388, -66.000000, -784.500000, -162.000000,  84.341200,  91.031184, -66.057848,   0.174340,   0.699709,   0.106184,  -0.684616, 
32328,  -9.773243,   0.974974,  -0.204566,  29.369642,  -3.207482,  20.693762,   0.204927,  -0.915495,  -0.240961, -63.000000, -784.500000, -159.000000,  84.128120,  91.145944, -66.239328,   0.173822,   0.700261,   0.103093,  -0.684641, 
32329,  -9.849096,   1.151692,  -0.054519,  29.159512,  -3.460403,  21.592060,   0.209818,  -0.927084,  -0.247879, -60.000000, -789.000000, -160.500000,  83.905840,  91.130448, -66.548828,   0.173389,   0.700723,   0.099940,  -0.684721, 
32330,  -9.888094,   0.967610,  -0.125165,  28.709450,  -3.576817,  22.986206,   0.200937,  -0.932059,  -0.252022, -64.500000, -790.500000, -162.000000,  83.694200,  91.105408, -66.865952,   0.172907,   0.701161,   0.096861,  -0.684831, 
32331,  -9.812217,   1.060367,   0.037758,  28.475352,  -3.615196,  24.079518,   0.197697,  -0.934140,  -0.242623, -66.000000, -790.500000, -159.000000,  83.459080,  90.896288, -67.362528,   0.172622,   0.701484,   0.093641,  -0.685032, 
32332,  -9.800248,   1.314365,   0.067529,  28.145772,  -3.769369,  25.100094,   0.196809,  -0.943826,  -0.239241, -66.000000, -793.500000, -157.500000,  83.210664,  90.782528, -67.761984,   0.172412,   0.701855,   0.090359,  -0.685146, 
32333,  -9.875468,   1.218427,   0.025001,  28.381742,  -3.957786,  26.639768,   0.190296,  -0.953600,  -0.239748, -69.000000, -796.500000, -157.500000,  82.952208,  90.683232, -68.147496,   0.172259,   0.702226,   0.087013,  -0.685242, 
32334,  -9.890427,   1.266259,   0.075677,  28.565302,  -4.170873,  28.552654,   0.184329,  -0.955317,  -0.234562, -72.000000, -796.500000, -156.000000,  82.683400,  90.561352, -68.558056,   0.172155,   0.702562,   0.083582,  -0.685342, 
32335,  -9.820440,   1.230796,  -0.073137,  29.092678,  -4.413235,  30.111982,   0.184158,  -0.956131,  -0.230025, -72.000000, -796.500000, -154.500000,  82.394576,  90.481832, -68.928888,   0.172151,   0.702934,   0.080017,  -0.685398, 
32336,  -9.745564,   1.201331,   0.037171,  28.625860,  -4.576748,  30.982934,   0.183970,  -0.959752,  -0.235139, -72.000000, -798.000000, -156.000000,  82.101816,  90.393112, -69.310368,   0.172161,   0.703266,   0.076413,  -0.685449, 
32337,  -9.702519,   1.224363,  -0.048655,  27.656654,  -4.367210,  31.515558,   0.171336,  -0.969252,  -0.216271, -78.000000, -799.500000, -150.000000,  81.816032,  90.390696, -69.600688,   0.172148,   0.703652,   0.072894,  -0.685444, 
32338,  -9.587689,   1.396737,  -0.202305,  26.778604,  -4.560207,  31.650410,   0.163951,  -0.985905,  -0.203743, -81.000000, -804.000000, -145.500000,  81.496728,  90.466096, -69.802760,   0.172386,   0.704108,   0.069244,  -0.685305, 
32339,  -9.600360,   1.716845,  -0.078837,  25.903480,  -4.615559,  30.865222,   0.167020,  -0.984639,  -0.208605, -79.500000, -804.000000, -147.000000,  81.164320,  90.511704, -70.025536,   0.172758,   0.704515,   0.065563,  -0.685144, 
32340,  -9.784455,   1.817700,  -0.208206,  26.218592,  -4.782378,  31.440126,   0.164652,  -0.979840,  -0.212241, -81.000000, -802.500000, -148.500000,  80.822768,  90.583768, -70.219944,   0.173193,   0.704944,   0.061841,  -0.684945, 
32341,  -9.772637,   1.858011,   0.014990,  26.874182,  -5.059906,  33.139492,   0.154744,  -0.989703,  -0.189159, -85.500000, -804.000000, -141.000000,  80.472224,  90.528056, -70.545712,   0.173683,   0.705234,   0.058018,  -0.684857, 
32342,  -9.838797,   1.821031,   0.025685,  28.102648,  -5.459463,  35.591448,   0.151659,  -0.993775,  -0.193950, -87.000000, -805.500000, -142.500000,  80.110856,  90.425704, -70.927928,   0.174187,   0.705463,   0.054058,  -0.684823, 
32343,  -9.779222,   1.845404,   0.135326,  29.030664,  -5.858657,  37.979192,   0.146563,  -0.988614,  -0.201799, -90.000000, -804.000000, -145.500000,  79.737584,  90.313976, -71.331440,   0.174692,   0.705655,   0.049946,  -0.684799, 
32344,  -9.763890,   1.635660,   0.081593,  29.778898,  -6.304937,  39.772308,   0.143682,  -0.986259,  -0.191823, -91.500000, -802.500000, -142.500000,  79.364704,  90.150488, -71.793336,   0.175169,   0.705773,   0.045785,  -0.684867, 
32345,  -9.593283,   1.850616,   0.105437,  30.375424,  -6.622211,  40.626132,   0.141735,  -1.006444,  -0.180520, -91.500000, -808.500000, -138.000000,  78.964160,  90.008752, -72.239848,   0.175767,   0.705883,   0.041416,  -0.684881, 
32346,  -9.511288,   1.898992,   0.111393,  31.184814,  -7.077737,  40.628892,   0.137419,  -1.021832,  -0.172854, -93.000000, -813.000000, -135.000000,  78.563656,  89.863776, -72.698312,   0.176313,   0.705949,   0.036990,  -0.684921, 
32347,  -9.476907,   2.061792,   0.055104,  32.060124,  -7.402065,  40.221796,   0.133088,  -1.040025,  -0.174840, -94.500000, -819.000000, -135.000000,  78.147000,  89.769496, -73.114856,   0.176896,   0.706050,   0.032418,  -0.684902, 
32348,  -9.480083,   2.067466,   0.118035,  33.207848,  -7.956010,  39.877452,   0.132199,  -1.049711,  -0.171457, -94.500000, -822.000000, -133.500000,  77.740384,  89.685224, -73.532056,   0.177350,   0.706114,   0.027842,  -0.684898, 
32349,  -9.520811,   2.198030,  -0.022441,  34.497712,  -8.459267,  39.846940,   0.126591,  -1.046992,  -0.165694, -97.500000, -820.500000, -132.000000,  77.322008,  89.631912, -73.931064,   0.177796,   0.706205,   0.023120,  -0.684878, 
32350,  -9.535346,   2.224390,   0.028025,  35.251244,  -8.948739,  39.951948,   0.117726,  -1.049162,  -0.160184, -102.000000, -820.500000, -130.500000,  76.914920,  89.579688, -74.340672,   0.178102,   0.706251,   0.018395,  -0.684886, 
32351,  -9.648597,   2.258297,  -0.056992,  35.973020,  -9.347665,  40.743808,   0.115015,  -1.045992,  -0.154746, -103.500000, -819.000000, -129.000000,  76.508160,  89.567856, -74.719816,   0.178340,   0.706322,   0.013617,  -0.684858, 
32352,  -9.595134,   2.286126,   0.008212,  36.620068,  -9.817004,  42.427100,   0.106150,  -1.048161,  -0.149236, -108.000000, -819.000000, -127.500000,  76.095840,  89.543720, -75.118328,   0.178572,   0.706345,   0.008758,  -0.684855, 
32353,  -9.508539,   2.368762,  -0.022823,  37.016472, -10.190699,  43.368620,   0.095868,  -1.065266,  -0.136384, -112.500000, -823.500000, -123.000000,  75.663792,  89.531512, -75.511552,   0.178879,   0.706349,   0.003739,  -0.684813, 
32354,  -9.546037,   2.491351,  -0.013314,  37.212336, -10.640801,  43.966184,   0.091894,  -1.079024,  -0.137793, -114.000000, -828.000000, -123.000000,  75.225480,  89.502176, -75.924984,   0.179210,   0.706295,  -0.001341,  -0.684802, 
32355,  -9.466275,   2.588324,   0.027804,  37.477140, -11.090895,  44.985148,   0.088996,  -1.079475,  -0.137469, -115.500000, -828.000000, -123.000000,  74.778344,  89.465352, -76.349912,   0.179568,   0.706178,  -0.006502,  -0.684788, 
32356,  -9.309050,   2.813676,   0.139228,  37.706232, -11.434435,  45.172068,   0.080131,  -1.081644,  -0.131959, -120.000000, -828.000000, -121.500000,  74.318552,  89.419672, -76.787200,   0.179983,   0.706007,  -0.011763,  -0.684783, 
32357,  -9.331224,   2.867275,   0.035493,  38.086780, -11.954863,  45.046144,   0.074148,  -1.086168,  -0.136426, -123.000000, -829.500000, -123.000000,  73.853480,  89.418184, -77.185736,   0.180389,   0.705869,  -0.017082,  -0.684709, 
32358,  -9.217034,   2.876365,   0.124219,  38.575636, -12.355754,  44.763004,   0.075628,  -1.100652,  -0.129408, -121.500000, -834.000000, -120.000000,  73.387088,  89.402744, -77.603176,   0.180776,   0.705666,  -0.022440,  -0.684666, 
32359,  -9.319296,   2.993304,  -0.076463,  38.974032, -12.690658,  44.198656,   0.065379,  -1.112143,  -0.097251, -126.000000, -835.500000, -109.500000,  72.923392,  89.411064, -78.001032,   0.181116,   0.705458,  -0.027802,  -0.684587, 
32360,  -9.400523,   2.788131,  -0.047175,  39.003400, -13.116389,  44.653632,   0.056139,  -1.121555,  -0.101971, -130.500000, -838.500000, -111.000000,  72.478872,  89.422136, -78.400080,   0.181318,   0.705221,  -0.033068,  -0.684536, 
32361,  -9.258664,   3.029661,  -0.057101,  38.948248, -13.388193,  45.212924,   0.048333,  -1.113223,  -0.104382, -135.000000, -835.500000, -112.500000,  72.014056,  89.403344, -78.827232,   0.181660,   0.704896,  -0.038452,  -0.684523, 
32362,  -9.146196,   3.119420,   0.048847,  38.781956, -13.809114,  45.164936,   0.036211,  -1.120279,  -0.099125, -141.000000, -837.000000, -111.000000,  71.549272,  89.386720, -79.253544,   0.181988,   0.704514,  -0.043839,  -0.684492, 
32363,  -9.091892,   3.261629,   0.041677,  38.225376, -13.830949,  43.534832,   0.030399,  -1.123989,  -0.108130, -144.000000, -838.500000, -114.000000,  71.092984,  89.376768, -79.671408,   0.182275,   0.704107,  -0.049160,  -0.684458, 
32364,  -9.060666,   3.250458,   0.013902,  37.504772, -13.871005,  41.745944,   0.031708,  -1.139287,  -0.096574, -142.500000, -843.000000, -109.500000,  70.661608,  89.383240, -80.069088,   0.182437,   0.703727,  -0.054300,  -0.684442, 
32365,  -9.164767,   3.223110,  -0.058630,  36.924052, -13.950053,  40.515860,   0.033718,  -1.148521,  -0.093515, -141.000000, -846.000000, -108.000000,  70.250272,  89.379720, -80.469104,   0.182524,   0.703294,  -0.059267,  -0.684455, 
32366,  -9.157156,   3.287732,  -0.047644,  36.019844, -13.837690,  39.850344,   0.034110,  -1.138473,  -0.073633, -141.000000, -841.500000, -102.000000,  69.853424,  89.378472, -80.860616,   0.182558,   0.702829,  -0.064102,  -0.684460, 
32367,  -9.136122,   3.234400,  -0.154605,  35.287428, -13.819659,  39.177304,   0.030528,  -1.142182,  -0.055159, -142.500000, -841.500000, -96.000000,  69.462760,  89.405320, -81.216992,   0.182596,   0.702416,  -0.068849,  -0.684418, 
32368,  -9.086436,   3.321686,  -0.099553,  33.993520, -13.690718,  38.291176,   0.021988,  -1.145529,  -0.068377, -147.000000, -843.000000, -100.500000,  69.076680,  89.410664, -81.583472,   0.182682,   0.701949,  -0.073501,  -0.684424, 
32369,  -9.018167,   3.709220,  -0.254321,  33.161644, -13.679934,  37.702980,   0.018577,  -1.148424,  -0.054440, -148.500000, -843.000000, -96.000000,  68.670840,  89.482784, -81.876352,   0.182910,   0.701569,  -0.078215,  -0.684210, 
32370,  -9.015501,   3.609333,  -0.144467,  31.550292, -13.266622,  36.616312,   0.007002,  -1.147423,  -0.043492, -154.500000, -841.500000, -93.000000,  68.302856,  89.527288, -82.187832,   0.182970,   0.701135,  -0.082644,  -0.684099, 
32371,  -8.909854,   3.933956,   0.047623,  30.969676, -13.300300,  36.145152,  -0.000398,  -1.166883,  -0.040616, -157.500000, -847.500000, -91.500000,  67.906472,  89.559784, -82.499632,   0.183275,   0.700647,  -0.087175,  -0.683963, 
32372,  -8.960027,   3.687008,   0.052195,  30.377304, -13.206469,  35.475004,  -0.013049,  -1.179189,  -0.031401, -163.500000, -850.500000, -88.500000,  67.558272,  89.583592, -82.814576,   0.183330,   0.700169,  -0.091376,  -0.683923, 
32373,  -8.899739,   3.887302,   0.009305,  30.080072, -13.143918,  35.006748,  -0.013049,  -1.179189,  -0.031401, -163.500000, -850.500000, -88.500000,  67.185032,  89.587920, -83.138888,   0.183591,   0.699583,  -0.095665,  -0.683850, 
32374,  -8.976874,   3.658399,  -0.026834,  29.129598, -12.975895,  34.381356,  -0.014108,  -1.189689,  -0.023481, -163.500000, -853.500000, -85.500000,  66.851388,  89.594272, -83.456344,   0.183644,   0.699014,  -0.099679,  -0.683823, 
32375,  -9.019948,   3.653298,  -0.050175,  27.973120, -12.734333,  34.129224,  -0.023160,  -1.195479,  -0.023086, -168.000000, -855.000000, -85.500000,  66.518312,  89.577840, -83.783728,   0.183776,   0.698388,  -0.103612,  -0.683844, 
32376,  -9.102018,   3.720274,   0.021258,  26.320834, -12.232730,  34.059012,  -0.022990,  -1.194665,  -0.027624, -168.000000, -855.000000, -87.000000,  66.205796,  89.568584, -84.092336,   0.183857,   0.697799,  -0.107346,  -0.683872, 
32377,  -8.629455,   3.943994,   0.075687,  24.629266, -11.696474,  32.039528,  -0.023006,  -1.197471,  -0.037276, -168.000000, -856.500000, -90.000000,  65.868096,  89.552728, -84.389472,   0.184194,   0.697157,  -0.111120,  -0.683842, 
32378,  -8.989590,   3.825772,  -0.073438,  22.623670, -10.740050,  30.285134,  -0.023690,  -1.200729,  -0.019126, -168.000000, -856.500000, -84.000000,  65.593864,  89.595832, -84.612896,   0.184230,   0.696714,  -0.114406,  -0.683720, 
32379,  -8.857622,   3.883584,  -0.307300,  20.340754,  -9.821025,  29.797648,  -0.027476,  -1.210866,  -0.015420, -169.500000, -859.500000, -82.500000,  65.305136,  89.659176, -84.792168,   0.184495,   0.696327,  -0.117631,  -0.683488, 
32380,  -8.858692,   4.122366,  -0.328392,  18.801778,  -9.233192,  29.242852,  -0.036016,  -1.214212,  -0.028638, -174.000000, -861.000000, -87.000000,  64.996660,  89.739680, -84.935856,   0.184988,   0.695981,  -0.120861,  -0.683152, 
32381,  -8.821297,   4.454538,  -0.127821,  17.865480,  -9.110965,  30.113706,  -0.042683,  -1.221995,  -0.014955, -177.000000, -862.500000, -82.500000,  64.668288,  89.779944, -85.104288,   0.185698,   0.695516,  -0.124121,  -0.682867, 
32382,  -8.711271,   4.535359,   0.023545,  17.571610,  -9.131906,  31.110940,  -0.047574,  -1.210406,  -0.008037, -180.000000, -858.000000, -81.000000,  64.329468,  89.807256, -85.281136,   0.186494,   0.694979,  -0.127413,  -0.682574, 
32383,  -8.612421,   4.552044,   0.050851,  17.913300,  -9.282983,  31.294782,  -0.041933,  -1.207511,   0.005504, -177.000000, -856.500000, -76.500000,  63.975380,  89.785624, -85.501792,   0.187418,   0.694289,  -0.130770,  -0.682388, 
32384,  -8.384923,   4.693971,   0.135266,  18.178592,  -9.537458,  30.353258,  -0.051874,  -1.222986,   0.009281, -181.500000, -861.000000, -75.000000,  63.607388,  89.752896, -85.735936,   0.188414,   0.693540,  -0.134226,  -0.682225, 
32385,  -8.404373,   4.513251,   0.120834,  18.123538,  -9.470413,  27.769074,  -0.055334,  -1.234301,  -0.005739, -183.000000, -865.500000, -79.500000,  63.274724,  89.692576, -85.995864,   0.189211,   0.692731,  -0.137454,  -0.682189, 
32386,  -8.477567,   4.531202,   0.160432,  17.366696,  -9.179866,  25.085392,  -0.058591,  -1.239188,  -0.005992, -184.500000, -867.000000, -79.500000,  62.976400,  89.628576, -86.253456,   0.189834,   0.691926,  -0.140432,  -0.682195, 
32387,  -8.370417,   4.592882,   0.124682,  16.113964,  -8.684031,  22.312864,  -0.068407,  -1.221622,  -0.011461, -190.500000, -861.000000, -82.500000,  62.716732,  89.595288, -86.474408,   0.190262,   0.691260,  -0.143136,  -0.682178, 
32388,  -8.502889,   4.460738,  -0.025115,  14.699944,  -7.955242,  19.795084,  -0.059183,  -1.215018,  -0.016393, -186.000000, -859.500000, -84.000000,  62.494876,  89.600848, -86.646224,   0.190524,   0.690764,  -0.145546,  -0.682097, 
32389,  -8.437509,   4.581628,  -0.032218,  11.970342,  -6.547856,  17.179134,  -0.064354,  -1.234477,   0.013960, -187.500000, -864.000000, -73.500000,  62.307404,  89.636024, -86.767704,   0.190704,   0.690424,  -0.147620,  -0.681954, 
32390,  -8.608448,   4.265034,  -0.374233,   9.189479,  -5.040326,  14.990841,  -0.076458,  -1.238727,   0.028868, -193.500000, -864.000000, -69.000000,  62.167704,  89.725936, -86.811216,   0.190735,   0.690337,  -0.149261,  -0.681687, 
32391,  -8.202950,   4.446931,  -0.244791,   5.917771,  -3.324729,   9.763514,  -0.078827,  -1.233929,   0.025233, -195.000000, -862.500000, -70.500000,  62.012468,  89.802840, -86.829536,   0.191087,   0.690240,  -0.150767,  -0.681368, 
32392,  -8.837930,   3.757112,  -0.026322,   4.190978,  -2.472990,   5.042629,  -0.075587,  -1.231848,   0.015833, -193.500000, -862.500000, -73.500000,  61.957140,  89.778024, -86.909232,   0.191092,   0.690022,  -0.151433,  -0.681445, 
32393,  -8.916843,   3.799713,   0.116528,   1.985228,  -1.057751,   2.458700,  -0.075229,  -1.227412,   0.016411, -193.500000, -861.000000, -73.500000,  61.961496,  89.738968, -86.980056,   0.190880,   0.689870,  -0.151601,  -0.681623, 
32394,  -9.092197,   3.682087,   0.197174,  -0.377271,   0.263739,   0.611128,  -0.074870,  -1.222977,   0.016988, -193.500000, -859.500000, -73.500000,  61.945736,  89.737720, -86.990664,   0.190919,   0.689833,  -0.151753,  -0.681617, 
32395,  -8.896093,   4.497933,  -0.102972,  -0.459546,   0.812006,   1.681721,  -0.075946,  -1.236283,   0.015256, -193.500000, -864.000000, -73.500000,  61.945000,  89.761592, -86.966800,   0.190921,   0.689904,  -0.151755,  -0.681544, 
32396,  -7.829370,   5.510587,  -0.408298,  -0.026864,   0.121406,   0.769112,  -0.084436,  -1.231210,   0.030995, -198.000000, -861.000000, -69.000000,  61.927916,  89.765720, -86.956976,   0.191057,   0.689901,  -0.151824,  -0.681495, 
32397,  -9.108116,   3.678726,   0.132725,   0.455374,  -0.048885,  -1.012703,  -0.084077,  -1.226775,   0.031573, -198.000000, -859.500000, -69.000000,  61.913376,  89.761920, -86.964512,   0.191121,   0.689865,  -0.151934,  -0.681489, 
32398,  -8.774888,   4.498430,   0.000620,  -0.340342,   0.494034,   0.432864,  -0.092959,  -1.231750,   0.027430, -202.500000, -861.000000, -70.500000,  61.922184,  89.763792, -86.960856,   0.191079,   0.689885,  -0.151870,  -0.681495, 
32399,  -8.336406,   4.980422,  -0.205291,  -0.127701,   0.178995,  -0.197001,  -0.093643,  -1.235008,   0.045580, -202.500000, -861.000000, -64.500000,  61.862804,  89.839896, -86.891080,   0.191389,   0.690026,  -0.152261,  -0.681181, 
32400,  -8.622960,   4.413199,   0.378219,  -0.033912,   0.043346,  -0.590011,  -0.075725,  -1.227050,   0.039676, -193.500000, -859.500000, -66.000000,  61.874504,  89.750880, -86.970880,   0.191381,   0.689787,  -0.152142,  -0.681452, 
32401,  -8.732523,   4.670573,  -0.012061,  -0.258638,   0.386966,   0.017989,  -0.066005,  -1.220808,   0.011479, -189.000000, -859.500000, -75.000000,  61.894464,  89.730152, -86.989560,   0.191276,   0.689754,  -0.152010,  -0.681543, 
32402,  -8.642090,   4.693804,   0.150464,  -0.128914,   0.054403,  -0.207931,  -0.067969,  -1.243800,   0.013129, -189.000000, -867.000000, -73.500000,  61.882420,  89.745568, -86.975464,   0.191339,   0.689783,  -0.152090,  -0.681479, 
32403,  -8.781469,   4.311691,   0.158345,  -0.272901,   0.506128,   0.120516,  -0.079031,  -1.240356,   0.010465, -195.000000, -865.500000, -75.000000,  61.924776,  89.672040, -87.039896,   0.191146,   0.689631,  -0.151785,  -0.681752, 
32404,  -8.144442,   5.153588,  -0.317644,  -0.077647,   0.073408,   0.054059,  -0.072143,  -1.223340,   0.021202, -192.000000, -859.500000, -72.000000,  61.869892,  89.787720, -86.935400,   0.191398,   0.689889,  -0.152175,  -0.681336, 
32405,  -8.898004,   4.238161,   0.407132,   0.223070,   0.342567,  -0.720144,  -0.083159,  -1.252122,   0.023247, -196.500000, -868.500000, -70.500000,  61.892876,  89.701592, -87.013344,   0.191316,   0.689673,  -0.151993,  -0.681618, 
32406,  -8.356318,   4.743491,  -0.180224,  -0.385549,   0.308638,   0.690161,  -0.088751,  -1.246598,   0.038662, -199.500000, -865.500000, -66.000000,  61.925884,  89.703640, -87.010200,   0.191126,   0.689724,  -0.151787,  -0.681662, 
32407,  -8.287603,   4.934252,   0.152483,   0.095926,  -0.114273,  -0.427958,  -0.087880,  -1.239719,   0.025627, -199.500000, -864.000000, -70.500000,  61.867028,  89.729920, -86.987128,   0.191455,   0.689720,  -0.152160,  -0.681494, 
32408,  -9.146775,   4.257951,   0.475717,  -0.094164,   0.053086,  -0.451254,  -0.091169,  -1.250219,   0.006068, -201.000000, -868.500000, -76.500000,  61.928168,  89.634440, -87.075120,   0.191142,   0.689526,  -0.151753,  -0.681867, 
32409,  -8.595301,   4.771010,  -0.087560,  -0.309593,   0.607598,  -0.156578,  -0.087008,  -1.232840,   0.012592, -199.500000, -862.500000, -75.000000,  61.944364,  89.689112, -87.025048,   0.191015,   0.689705,  -0.151679,  -0.681736, 
32410,  -8.342753,   4.635856,   0.153246,   0.068724,   0.016869,  -0.502321,  -0.086633,  -1.225597,   0.022822, -199.500000, -859.500000, -72.000000,  61.906372,  89.677216, -87.035560,   0.191250,   0.689621,  -0.151900,  -0.681709, 
32411,  -8.889303,   4.180105,  -0.310482,   0.153500,   0.231343,  -0.854397,  -0.087880,  -1.239719,   0.025627, -199.500000, -864.000000, -70.500000,  61.937616,  89.692576, -87.024608,   0.191037,   0.689702,  -0.151737,  -0.681720, 
32412,  -8.797785,   4.529721,   0.065979,  -0.291468,   0.117087,  -0.199905,  -0.087709,  -1.238904,   0.021090, -199.500000, -864.000000, -72.000000,  61.952368,  89.631464, -87.078264,   0.190998,   0.689549,  -0.151608,  -0.681914, 
32413,  -8.454904,   4.622837,  -0.086615,  -0.230341,   0.157493,  -0.001247,  -0.087179,  -1.233654,   0.017130, -199.500000, -862.500000, -73.500000,  61.948192,  89.628512, -87.080376,   0.191028,   0.689536,  -0.151628,  -0.681915, 
32414,  -8.597376,   4.740278,  -0.151924,   0.077107,  -0.000854,  -0.485137,  -0.078298,  -1.228678,   0.021273, -195.000000, -861.000000, -72.000000,  61.934780,  89.674864, -87.040080,   0.191068,   0.689649,  -0.151742,  -0.681765, 
32415,  -8.699162,   4.658597,   0.140834,  -0.002749,  -0.099455,  -0.668597,  -0.075587,  -1.231848,   0.015833, -193.500000, -862.500000, -73.500000,  61.931124,  89.647760, -87.064848,   0.191106,   0.689566,  -0.151752,  -0.681836, 
32416,  -8.657503,   4.404505,   0.044513,  -0.186758,   0.203382,  -0.675881,  -0.080495,  -1.223065,   0.013099, -196.500000, -859.500000, -75.000000,  61.954904,  89.640096, -87.072040,   0.190968,   0.689575,  -0.151606,  -0.681897, 
32417,  -8.707682,   4.490985,   0.185771,  -0.191508,   0.179792,  -0.263445,  -0.086804,  -1.226412,   0.027359, -199.500000, -859.500000, -70.500000,  61.978864,  89.614376, -87.093912,   0.190850,   0.689536,  -0.151440,  -0.682006, 
32418,  -8.806522,   4.527840,   0.143224,  -0.041871,   0.197259,  -0.065187,  -0.086040,  -1.249767,   0.033223, -198.000000, -867.000000, -67.500000,  61.995856,  89.587128, -87.118456,   0.190767,   0.689481,  -0.151323,  -0.682110, 
32419,  -8.615043,   4.518069,   0.107792,  -0.229164,   0.324973,   0.280234,  -0.082613,  -1.244065,   0.028939, -196.500000, -865.500000, -69.000000,  62.006116,  89.569416, -87.133904,   0.190720,   0.689445,  -0.151249,  -0.682176, 
32420,  -8.598475,   4.537905,  -0.002759,   0.061664,   0.305509,   0.277290,  -0.078673,  -1.235921,   0.011043, -195.000000, -864.000000, -75.000000,  62.004016,  89.564544, -87.137840,   0.190739,   0.689429,  -0.151256,  -0.682185, 
32421,  -8.640394,   4.747461,  -0.036502,  -0.122932,   0.228895,   0.094035,  -0.081775,  -1.242799,  -0.003400, -196.500000, -867.000000, -79.500000,  61.987932,  89.577480, -87.125824,   0.190828,   0.689445,  -0.151358,  -0.682122, 
32422,  -8.487383,   4.708800,   0.011168,  -0.102433,   0.152957,  -0.057938,  -0.078877,  -1.242348,  -0.003724, -195.000000, -867.000000, -79.500000,  61.968340,  89.583632, -87.119792,   0.190943,   0.689436,  -0.151477,  -0.682073, 
32423,  -8.548360,   4.656135,   0.006088,   0.074206,  -0.011932,  -0.526947,  -0.076850,  -1.248775,   0.008986, -193.500000, -868.500000, -75.000000,  61.959328,  89.585872, -87.118880,   0.190989,   0.689429,  -0.151539,  -0.682054, 
32424,  -8.713987,   4.690229,   0.005335,   0.034587,  -0.011204,  -0.790393,  -0.077005,  -1.246784,   0.023176, -193.500000, -867.000000, -70.500000,  61.956184,  89.590816, -87.115840,   0.190996,   0.689438,  -0.151569,  -0.682037, 
32425,  -8.664609,   4.503583,   0.096396,  -0.123864,  -0.004524,  -0.714660,  -0.074261,  -1.244340,   0.037042, -192.000000, -865.500000, -66.000000,  61.969416,  89.576728, -87.128960,   0.190924,   0.689415,  -0.151484,  -0.682099, 
32426,  -8.729808,   4.324187,   0.175526,  -0.171195,   0.098316,  -0.338161,  -0.076817,  -1.243163,   0.028291, -193.500000, -865.500000, -69.000000,  62.002724,  89.535464, -87.165536,   0.190757,   0.689343,  -0.151258,  -0.682268, 
32427,  -8.912319,   4.366812,   0.178391,  -0.091336,   0.331470,   0.065262,  -0.087554,  -1.240896,   0.006899, -199.500000, -865.500000, -76.500000,  62.040212,  89.493712, -87.202400,   0.190565,   0.689275,  -0.151005,  -0.682444, 
32428,  -8.760065,   4.461490,   0.130541,  -0.187083,   0.406054,   0.694078,  -0.082304,  -1.248049,   0.000559, -196.500000, -868.500000, -78.000000,  62.060000,  89.468464, -87.223592,   0.190473,   0.689230,  -0.150862,  -0.682543, 
32429,  -8.515629,   4.607799,   0.046889,  -0.109316,   0.468552,   0.774372,  -0.067781,  -1.240179,   0.018244, -189.000000, -865.500000, -72.000000,  62.050768,  89.464120, -87.225712,   0.190541,   0.689208,  -0.150905,  -0.682537, 
32430,  -8.520815,   4.858088,  -0.115864,  -0.109895,   0.351174,   0.432865,  -0.072673,  -1.228590,   0.025162, -192.000000, -861.000000, -70.500000,  62.016536,  89.505032, -87.188528,   0.190720,   0.689281,  -0.151132,  -0.682369, 
32431,  -8.401906,   4.837745,   0.077402,   0.033507,  -0.026206,  -0.242386,  -0.077939,  -1.224243,   0.021850, -195.000000, -859.500000, -72.000000,  61.968772,  89.516832, -87.177808,   0.190998,   0.689250,  -0.151426,  -0.682260, 
32432,  -8.707632,   4.325786,  -0.096963,   0.010588,   0.221750,  -0.473212,  -0.085558,  -1.212291,   0.024554, -199.500000, -855.000000, -72.000000,  61.985504,  89.513696, -87.181816,   0.190893,   0.689262,  -0.151330,  -0.682297, 
32433,  -8.821790,   4.476147,   0.010288,  -0.154040,   0.162500,   0.046097,  -0.081913,  -1.238001,   0.020442, -196.500000, -864.000000, -72.000000,  62.013884,  89.529000, -87.168320,   0.190712,   0.689343,  -0.151169,  -0.682299, 
32434,  -8.651757,   4.520455,  -0.036217,   0.181389,   0.187595,  -0.115117,  -0.069215,  -1.257921,   0.015934, -189.000000, -871.500000, -72.000000,  62.012640,  89.496992, -87.196488,   0.190745,   0.689251,  -0.151155,  -0.682386, 
32435,  -8.563499,   4.601537,   0.022921,  -0.241800,   0.021859,   0.338531,  -0.070679,  -1.240630,   0.018568, -190.500000, -865.500000, -72.000000,  62.014356,  89.518656, -87.177912,   0.190715,   0.689314,  -0.151162,  -0.682330, 
32436,  -8.720453,   4.618453,   0.165763,  -0.076989,   0.144711,   0.081442,  -0.079219,  -1.243977,   0.005350, -195.000000, -867.000000, -76.500000,  62.009484,  89.473536, -87.217008,   0.190782,   0.689180,  -0.151158,  -0.682446, 
32437,  -8.760245,   4.446928,   0.017808,  -0.136386,   0.197648,  -0.031410,  -0.076304,  -1.240719,   0.014678, -193.500000, -865.500000, -73.500000,  62.023012,  89.483600, -87.207480,   0.190698,   0.689228,  -0.151079,  -0.682438, 
32438,  -8.639955,   4.541892,   0.168081,  -0.119175,   0.243331,   0.213273,  -0.072485,  -1.224969,   0.030277, -192.000000, -859.500000, -69.000000,  62.027516,  89.460808, -87.226880,   0.190692,   0.689169,  -0.151032,  -0.682507, 
32439,  -8.657980,   4.620286,  -0.002556,  -0.247622,   0.325015,   0.474398,  -0.069962,  -1.231759,   0.019723, -190.500000, -862.500000, -72.000000,  62.028120,  89.466016, -87.221264,   0.190691,   0.689186,  -0.151026,  -0.682492, 
32440,  -8.529316,   4.698364,  -0.005085,  -0.127607,   0.224539,   0.012679,  -0.079373,  -1.241985,   0.019540, -195.000000, -865.500000, -72.000000,  62.002940,  89.481536, -87.205960,   0.190839,   0.689199,  -0.151178,  -0.682407, 
32441,  -8.682240,   4.434017,   0.116939,  -0.128044,   0.189220,   0.064264,  -0.090248,  -1.234920,   0.021991, -201.000000, -862.500000, -72.000000,  62.013652,  89.449288, -87.234464,   0.190799,   0.689121,  -0.151093,  -0.682512, 
32442,  -8.653164,   4.680418,   0.063618,  -0.376649,   0.289321,   0.394016,  -0.090077,  -1.234106,   0.017453, -201.000000, -862.500000, -73.500000,  62.014976,  89.439144, -87.242088,   0.190806,   0.689096,  -0.151070,  -0.682540, 
32443,  -8.611246,   4.697925,   0.091680,  -0.102037,   0.197571,  -0.031033,  -0.082459,  -1.246057,   0.014749, -196.500000, -867.000000, -73.500000,  61.995672,  89.431496, -87.247512,   0.190935,   0.689050,  -0.151174,  -0.682529, 
32444,  -8.683524,   4.453108,   0.022516,  -0.111426,   0.126730,   0.028525,  -0.062002,  -1.242083,   0.007943, -186.000000, -867.000000, -75.000000,  62.006612,  89.430736, -87.248496,   0.190869,   0.689062,  -0.151109,  -0.682548, 
32445,  -8.636216,   4.708134,   0.057862,  -0.084945,   0.225284,   0.178518,  -0.065429,  -1.247784,   0.012228, -187.500000, -868.500000, -73.500000,  61.999236,  89.425664, -87.252064,   0.190922,   0.689038,  -0.151145,  -0.682549, 
32446,  -8.620718,   4.574524,   0.056116,   0.051446,   0.081395,  -0.066218,  -0.073406,  -1.240267,   0.014354, -192.000000, -865.500000, -73.500000,  61.990144,  89.418792, -87.258880,   0.190976,   0.689005,  -0.151200,  -0.682555, 
32447,  -8.636559,   4.537331,   0.071317,  -0.188432,   0.153548,   0.019450,  -0.078127,  -1.227864,   0.016735, -195.000000, -861.000000, -73.500000,  61.998248,  89.418736, -87.259736,   0.190923,   0.689015,  -0.151156,  -0.682569, 
32448,  -8.606358,   4.702072,   0.075195,   0.008511,   0.081492,  -0.066689,  -0.076492,  -1.244340,   0.009563, -193.500000, -867.000000, -75.000000,  61.986936,  89.407664, -87.269544,   0.190999,   0.688968,  -0.151217,  -0.682582, 
32449,  -8.620938,   4.595323,  -0.005838,   0.103619,   0.106773,  -0.300171,  -0.068344,  -1.251042,   0.002899, -189.000000, -870.000000, -76.500000,  61.983656,  89.421768, -87.258904,   0.190997,   0.689002,  -0.151257,  -0.682541, 
32450,  -8.366518,   4.853790,  -0.047438,  -0.068975,  -0.018540,  -0.530576,  -0.068498,  -1.249050,   0.017089, -189.000000, -868.500000, -72.000000,  61.955664,  89.446288, -87.238312,   0.191139,   0.689033,  -0.151448,  -0.682431, 
32451,  -8.384859,   4.934409,  -0.143126,  -0.174582,  -0.404567,  -1.269645,  -0.076646,  -1.242348,   0.023754, -193.500000, -865.500000, -70.500000,  61.914404,  89.495600, -87.196000,   0.191341,   0.689118,  -0.151737,  -0.682232, 
32452,  -8.462225,   4.887019,   0.087608,  -0.322046,  -0.610492,  -1.596937,  -0.084452,  -1.234017,   0.021343, -198.000000, -862.500000, -72.000000,  61.900712,  89.502472, -87.191456,   0.191408,   0.689117,  -0.151833,  -0.682194, 
32453,  -8.671693,   4.461839,   0.068052,  -0.363808,  -0.549849,  -1.935735,  -0.086245,  -1.256194,   0.018455, -198.000000, -870.000000, -72.000000,  61.928616,  89.486896, -87.206640,   0.191245,   0.689108,  -0.151663,  -0.682283, 
32454,  -9.287783,   3.685816,   0.524440,  -0.369929,  -0.144937,  -1.032205,  -0.082988,  -1.251307,   0.018709, -196.500000, -868.500000, -72.000000,  62.053984,  89.355168, -87.321712,   0.190604,   0.688901,  -0.150812,  -0.682842, 
32455,  -9.339508,   3.571637,   0.705748,  -0.202992,   0.585523,   0.992991,  -0.078998,  -1.234743,   0.029770, -195.000000, -862.500000, -69.000000,  62.196724,  89.148304, -87.503640,   0.189912,   0.688510,  -0.149810,  -0.683633, 
32456,  -9.568505,   3.222370,   0.582229,   0.410491,   1.452410,   3.808796,  -0.079340,  -1.236372,   0.038845, -195.000000, -862.500000, -66.000000,  62.365688,  88.975496, -87.655040,   0.189041,   0.688260,  -0.148668,  -0.684368, 
32457,  -8.585063,   6.210548,  -1.777324,  -0.454405,   2.024477,   5.706674,  -0.073577,  -1.241082,   0.018892, -192.000000, -865.500000, -72.000000,  62.358880,  88.950848, -87.669968,   0.189140,   0.688191,  -0.148652,  -0.684415, 
32458,  -6.156310,   6.921056,  -0.650212,   0.813376,  -1.119800,   2.749291,  -0.076133,  -1.239905,   0.010141, -193.500000, -865.500000, -75.000000,  62.309324,  88.962952, -87.647064,   0.189499,   0.688172,  -0.148885,  -0.684286, 
32459,  -9.718673,   2.986641,   0.245736,   0.955225,  -0.854095,  -1.691629,  -0.081742,  -1.237186,   0.015904, -196.500000, -864.000000, -73.500000,  62.315724,  88.947824, -87.673280,   0.189396,   0.688121,  -0.148914,  -0.684358, 
32460,  -9.755555,   3.815265,  -0.238499,   0.843275,   0.040948,   0.890407,  -0.079561,  -1.245606,   0.014425, -195.000000, -867.000000, -73.500000,  62.315016,  88.944000, -87.678232,   0.189393,   0.688108,  -0.148925,  -0.684371, 
32461,  -7.969847,   5.527052,  -0.059367,  -0.568566,   0.381504,   2.691117,  -0.082988,  -1.251307,   0.018709, -196.500000, -868.500000, -72.000000,  62.296672,  88.972528, -87.647808,   0.189513,   0.688169,  -0.149023,  -0.684255, 
32462,  -8.057708,   4.544847,  -0.253674,   0.564676,  -0.321483,   1.020146,  -0.088409,  -1.244969,   0.029587, -199.500000, -865.500000, -69.000000,  62.260744,  89.026816, -87.601184,   0.189679,   0.688269,  -0.149284,  -0.684052, 
32463,  -8.637714,   5.194638,   0.290117,  -0.504028,  -0.449151,   0.309868,  -0.091136,  -1.244606,   0.025373, -201.000000, -865.500000, -70.500000,  62.203804,  89.028664, -87.602688,   0.189997,   0.688191,  -0.149648,  -0.683964, 
32464,  -8.624804,   4.791484,  -0.016946,  -0.572228,  -0.458676,  -0.039169,  -0.090778,  -1.240170,   0.025951, -201.000000, -864.000000, -70.500000,  62.172868,  89.055976, -87.580248,   0.190151,   0.688223,  -0.149863,  -0.683844, 
32465,  -8.430903,   4.398899,   0.023181,  -0.360403,  -0.698883,   0.246093,  -0.089906,  -1.233291,   0.012916, -201.000000, -862.500000, -75.000000,  62.169892,  89.054456, -87.582520,   0.190165,   0.688213,  -0.149886,  -0.683845, 
32466,  -8.872828,   4.783670,  -0.075981,  -0.470800,  -0.882156,   0.697075,  -0.077255,  -1.220985,   0.003700, -195.000000, -859.500000, -78.000000,  62.150676,  89.077384, -87.563768,   0.190253,   0.688249,  -0.150026,  -0.683754, 
32467,  -9.439527,   3.616372,   1.017820,  -1.025953,  -0.087120,   1.293984,  -0.073982,  -1.213292,   0.013606, -193.500000, -856.500000, -75.000000,  62.141120,  89.059456, -87.576928,   0.190339,   0.688189,  -0.150056,  -0.683785, 
32468,  -8.713928,   4.099541,   0.542180,   0.101043,   0.349765,   3.750018,  -0.081212,  -1.231936,   0.011944, -196.500000, -862.500000, -75.000000,  62.223692,  88.895040, -87.723384,   0.189961,   0.687841,  -0.149455,  -0.684370, 
32469,  -8.574939,   5.084488,  -0.353359,   0.294359,   0.310519,   4.866396,  -0.082288,  -1.245243,   0.010212, -196.500000, -867.000000, -75.000000,  62.139244,  88.996104, -87.637256,   0.190371,   0.688002,  -0.150051,  -0.683965, 
32470,  -8.731145,   5.037670,  -0.258883,  -0.140161,   0.038514,   4.631465,  -0.078485,  -1.232299,   0.016157, -195.000000, -862.500000, -73.500000,  62.025480,  89.090184, -87.554192,   0.190979,   0.688110,  -0.150801,  -0.683528, 
32471,  -8.660583,   4.186985,   0.080932,  -0.337255,  -0.076716,   5.400842,  -0.081554,  -1.233565,   0.021019, -196.500000, -862.500000, -72.000000,  61.996732,  89.094696, -87.548168,   0.191159,   0.688086,  -0.150965,  -0.683468, 
32472,  -8.953339,   4.385321,   0.200655,   0.058268,  -0.174619,   7.902172,  -0.091682,  -1.252662,   0.019681, -201.000000, -868.500000, -72.000000,  61.980272,  89.057256, -87.581096,   0.191285,   0.687957,  -0.151039,  -0.683547, 
32473,  -8.972875,   5.028726,  -0.007576,  -0.020786,  -0.147935,  10.781481,  -0.083159,  -1.252122,   0.023247, -196.500000, -868.500000, -70.500000,  61.885304,  89.089184, -87.555880,   0.191809,   0.687913,  -0.151651,  -0.683317, 
32474,  -8.652033,   4.754951,   0.197382,   0.152463,  -0.478009,  13.591478,  -0.071021,  -1.242259,   0.027643, -190.500000, -865.500000, -69.000000,  61.747664,  89.094808, -87.553112,   0.192608,   0.687726,  -0.152497,  -0.683083, 
32475,  -8.959889,   4.387974,   0.376871,   2.146283,  -1.348067,  17.163292,  -0.079390,  -1.244792,   0.009887, -195.000000, -867.000000, -75.000000,  61.635312,  89.006672, -87.644728,   0.193257,   0.687291,  -0.153197,  -0.683173, 
32476,  -8.972370,   5.077017,   0.010034,   3.954795,  -2.147807,  21.262292,  -0.090794,  -1.242977,   0.016298, -201.000000, -865.500000, -73.500000,  61.438012,  88.996296, -87.689384,   0.194223,   0.686924,  -0.154591,  -0.682946, 
32477,  -8.554790,   5.013633,  -0.111290,   5.211295,  -3.502356,  25.243816,  -0.094017,  -1.242250,   0.035350, -202.500000, -864.000000, -67.500000,  61.168440,  89.074424, -87.673008,   0.195451,   0.686684,  -0.156581,  -0.682378, 
32478,  -8.618117,   4.522921,   0.329149,   7.907814,  -4.994260,  27.745730,  -0.097991,  -1.256008,   0.033941, -204.000000, -868.500000, -67.500000,  60.906848,  89.007568, -87.806464,   0.196609,   0.686002,  -0.158557,  -0.682279, 
32479,  -8.671697,   5.107250,   0.009476,  10.476021,  -6.188511,  29.440208,  -0.091495,  -1.249041,   0.024796, -201.000000, -867.000000, -70.500000,  60.613540,  88.990624, -87.928952,   0.197721,   0.685369,  -0.160954,  -0.682046, 
32480,  -8.434223,   5.298092,   0.002130,  11.596668,  -7.326928,  30.963078,  -0.092041,  -1.257097,   0.019104, -201.000000, -870.000000, -72.000000,  60.258308,  89.032232, -88.020760,   0.199031,   0.684769,  -0.163884,  -0.681565, 
32481,  -8.451913,   4.688738,   0.235681,  13.453162,  -8.564571,  32.354980,  -0.103820,  -1.262524,   0.015285, -207.000000, -871.500000, -73.500000,  59.944984,  89.000736, -88.194520,   0.200040,   0.683977,  -0.166614,  -0.681397, 
32482,  -8.545952,   5.076519,   0.195245,  15.545779,  -9.678753,  33.641432,  -0.111422,  -1.247766,   0.027642, -211.500000, -865.500000, -70.500000,  59.614992,  88.952904, -88.406208,   0.201021,   0.683068,  -0.169572,  -0.681300, 
32483,  -8.354674,   5.423954,  -0.026305,  16.750128, -10.819498,  34.744544,  -0.111747,  -1.246589,   0.046369, -211.500000, -864.000000, -64.500000,  59.231720,  88.989296, -88.565880,   0.202126,   0.682291,  -0.173037,  -0.680905, 
32484,  -8.509731,   4.956130,   0.205924,  17.821380, -11.733057,  35.758360,  -0.120629,  -1.251564,   0.042226, -216.000000, -865.500000, -66.000000,  58.876016,  88.983496, -88.775864,   0.203014,   0.681376,  -0.176378,  -0.680688, 
32485,  -8.186998,   5.289790,   0.255180,  19.518274, -12.616776,  37.676004,  -0.120287,  -1.249935,   0.033151, -216.000000, -865.500000, -69.000000,  58.502620,  88.940200, -89.033752,   0.203944,   0.680267,  -0.179880,  -0.680580, 
32486,  -8.340217,   5.495864,   0.041720,  20.402592, -13.490169,  37.757252,  -0.117731,  -1.251113,   0.041902, -214.500000, -865.500000, -66.000000,  58.097728,  88.973072, -89.242880,   0.204899,   0.679306,  -0.183731,  -0.680222, 
32487,  -8.297336,   5.263085,   0.238996,  21.308326, -14.478559,  39.725244,  -0.127313,  -1.262152,   0.046256, -219.000000, -868.500000, -64.500000,  57.703152,  88.953760, -89.507984,   0.205773,   0.678172,  -0.187539,  -0.680074, 
32488,  -8.268644,   5.312467,   0.314194,  22.380482, -15.257389,  40.993844,  -0.142879,  -1.277717,   0.046144, -226.500000, -873.000000, -64.500000,  57.309440,  88.911792, -89.806184,   0.206575,   0.676907,  -0.191393,  -0.680013, 
32489,  -8.227732,   5.598772,   0.068005,  22.947920, -15.903500,  41.893720,  -0.149204,  -1.283869,   0.050752, -229.500000, -874.500000, -63.000000,  56.873784,  88.918648, -90.074288,   0.207514,   0.675683,  -0.195602,  -0.679748, 
