Standard output of YIS Manager:
  TID,     AccX,     AccY,     AccZ,    AngVX,    AngVY,    AngVZ,     MagX,     MagY,     MagZ, NormMagX, NormMagY, NormMagZ,    Pitch,     Roll,      Yaw,       q0,       q1,       q2,       q3, 
33711,  -0.071139,  -9.760355,  -0.167302,  -0.059659,   0.135023,  -0.066489,  -0.019847,   1.058605,  -0.775087, -274.500000, -145.500000, -432.000000,   0.494038, -91.043096, -177.984064,   0.015400,  -0.009530,   0.713414,  -0.700436, 
33712,  -0.059101,  -9.772762,  -0.193778,  -0.067735,   0.179303,  -0.109306,  -0.028370,   1.058065,  -0.778653, -279.000000, -145.500000, -433.500000,   0.489975, -91.044512, -177.971840,   0.015449,  -0.009632,   0.713421,  -0.700427, 
33713,  -0.067647,  -9.789896,  -0.178509,  -0.093074,   0.214724,  -0.152470,  -0.026969,   1.070194,  -0.795648, -279.000000, -142.500000, -439.500000,   0.488180, -91.043888, -177.962352,   0.015496,  -0.009702,   0.713416,  -0.700429, 
33714,  -0.074171,  -9.770382,  -0.170872,  -0.042166,   0.152335,  -0.153018,  -0.020815,   1.075532,  -0.795718, -276.000000, -141.000000, -439.500000,   0.484481, -91.044056, -177.962528,   0.015472,  -0.009723,   0.713417,  -0.700429, 
33715,  -0.086762,  -9.762078,  -0.159747,  -0.093275,   0.215344,  -0.030620,  -0.021532,   1.066661,  -0.796873, -276.000000, -144.000000, -439.500000,   0.484158, -91.042304, -177.960288,   0.015484,  -0.009739,   0.713406,  -0.700439, 
33716,  -0.053787,  -9.771640,  -0.174262,  -0.102155,   0.179601,  -0.066165,  -0.020815,   1.075532,  -0.795718, -276.000000, -141.000000, -439.500000,   0.484602, -91.041800, -177.959648,   0.015490,  -0.009740,   0.713403,  -0.700442, 
33717,  -0.069388,  -9.796939,  -0.199773,  -0.076788,   0.144091,  -0.040408,  -0.023525,   1.078702,  -0.790279, -277.500000, -139.500000, -438.000000,   0.485988, -91.043184, -177.953616,   0.015536,  -0.009769,   0.713411,  -0.700433, 
33718,  -0.023107,  -9.759922,  -0.187009,  -0.119694,   0.144099,  -0.058286,  -0.022045,   1.064218,  -0.783260, -276.000000, -144.000000, -435.000000,   0.480201, -91.043296, -177.952592,   0.015506,  -0.009811,   0.713411,  -0.700433, 
33719,  -0.053031,  -9.776294,  -0.215571,  -0.171158,   0.153200,  -0.041285,  -0.021311,   1.075895,  -0.772453, -276.000000, -139.500000, -432.000000,   0.472792, -91.046032, -177.952736,   0.015459,  -0.009856,   0.713428,  -0.700417, 
33720,  -0.124439,  -9.763071,  -0.178914,  -0.025295,   0.144064,  -0.022435,  -0.028571,   1.092283,  -0.769171, -280.500000, -133.500000, -432.000000,   0.474588, -91.047136, -177.938368,   0.015558,  -0.009935,   0.713433,  -0.700408, 
33721,  -0.079329,  -9.750215,  -0.200995,  -0.094840,   0.046005,  -0.094567,  -0.026578,   1.080242,  -0.775765, -279.000000, -138.000000, -433.500000,   0.476806, -91.049384, -177.927104,   0.015640,  -0.009991,   0.713446,  -0.700392, 
33722,  -0.084937,  -9.766201,  -0.170950,  -0.170895,   0.179888,  -0.040808,  -0.016403,   1.067112,  -0.769719, -273.000000, -142.500000, -430.500000,   0.479035, -91.050296, -177.930944,   0.015630,  -0.009954,   0.713452,  -0.700387, 
33723,  -0.074232,  -9.764511,  -0.150213,  -0.230886,   0.197993,  -0.006336,  -0.015344,   1.077613,  -0.777639, -273.000000, -139.500000, -433.500000,   0.478695, -91.049240, -177.937632,   0.015587,  -0.009914,   0.713446,  -0.700394, 
33724,  -0.030417,  -9.816547,  -0.226643,   0.051811,   0.116936,  -0.074285,  -0.025301,   1.059331,  -0.783514, -277.500000, -145.500000, -435.000000,   0.472552, -91.055248, -177.932448,   0.015580,  -0.009985,   0.713482,  -0.700357, 
33725,  -0.097270,  -9.620994,  -0.057041,  -0.283838,   0.065019,   0.060341,  -0.025985,   1.056073,  -0.765364, -277.500000, -145.500000, -429.000000,   0.479210, -91.038776, -177.919712,   0.015701,  -0.010021,   0.713381,  -0.700457, 
33726,  -0.115622,  -9.919435,  -0.324135,   0.250055,   0.178368,  -0.149336,  -0.028183,   1.061686,  -0.773538, -279.000000, -144.000000, -432.000000,   0.481107, -91.053696, -177.907248,   0.015788,  -0.010089,   0.713471,  -0.700362, 
33727,  -0.144615,  -9.714808,  -0.030900,  -0.351251,   0.180382,  -0.025380,  -0.028044,   1.056887,  -0.797380, -279.000000, -147.000000, -439.500000,   0.486232, -91.043824, -177.894320,   0.015900,  -0.010137,   0.713410,  -0.700421, 
33728,  -0.034714,  -9.733769,  -0.242553,   0.189638,   0.142785,  -0.176743,  -0.027499,   1.064944,  -0.791687, -279.000000, -144.000000, -438.000000,   0.484372, -91.043264, -177.885200,   0.015944,  -0.010205,   0.713406,  -0.700423, 
33729,  -0.089560,  -9.784054,  -0.094275,  -0.368294,   0.189184,  -0.051521,  -0.018071,   1.077976,  -0.781852, -274.500000, -139.500000, -435.000000,   0.481902, -91.041104, -177.889696,   0.015901,  -0.010192,   0.713393,  -0.700437, 
33730,  -0.087900,  -9.796835,  -0.214665,   0.061112,   0.178880,  -0.134003,  -0.014986,   1.082048,  -0.777061, -273.000000, -138.000000, -433.500000,   0.484509, -91.039648, -177.896736,   0.015875,  -0.010132,   0.713384,  -0.700447, 
33731,   0.000890,  -9.778287,  -0.214580,  -0.290705,   0.215566,  -0.076306,  -0.021670,   1.071460,  -0.773031, -276.000000, -141.000000, -432.000000,   0.476631, -91.051144, -177.898000,   0.015817,  -0.010174,   0.713454,  -0.700377, 
33732,  -0.139683,  -9.699184,  -0.180755,   0.112215,   0.161725,   0.014205,  -0.016591,   1.063492,  -0.774834, -273.000000, -144.000000, -432.000000,   0.484108, -91.046736, -177.900544,   0.015848,  -0.010112,   0.713428,  -0.700404, 
33733,  -0.050484,  -9.863762,  -0.216202,  -0.256183,   0.224119,  -0.127991,  -0.015703,   1.073177,  -0.778216, -273.000000, -141.000000, -433.500000,   0.482955, -91.053184, -177.908048,   0.015794,  -0.010073,   0.713468,  -0.700365, 
33734,  -0.118353,  -9.693480,  -0.118034,  -0.051013,   0.143989,  -0.048828,  -0.010640,   1.062403,  -0.789672, -270.000000, -145.500000, -436.500000,   0.480963, -91.049016, -177.924144,   0.015684,  -0.009984,   0.713444,  -0.700393, 
33735,  -0.078953,  -9.807504,  -0.217556,  -0.119755,   0.125952,  -0.128233,  -0.010111,   1.067653,  -0.793632, -270.000000, -144.000000, -438.000000,   0.484117, -91.049440, -177.938208,   0.015618,  -0.009878,   0.713448,  -0.700392, 
33736,  -0.044255,  -9.756962,  -0.144083,  -0.102139,   0.188719,  -0.022488,  -0.015019,   1.076435,  -0.796366, -273.000000, -141.000000, -439.500000,   0.478671, -91.047672, -177.948256,   0.015523,  -0.009848,   0.713438,  -0.700405, 
33737,  -0.132288,  -9.758348,  -0.160084,  -0.102037,   0.197571,  -0.031032,  -0.021157,   1.073903,  -0.786643, -276.000000, -141.000000, -436.500000,   0.486309, -91.043296, -177.943600,   0.015599,  -0.009830,   0.713411,  -0.700431, 
33738,  -0.076215,  -9.726000,  -0.199185,  -0.025384,   0.126006,  -0.074974,  -0.027123,   1.072186,  -0.781458, -279.000000, -141.000000, -435.000000,   0.484694, -91.044704, -177.933504,   0.015650,  -0.009903,   0.713419,  -0.700421, 
33739,  -0.097277,  -9.819369,  -0.152783,  -0.085099,   0.161593,  -0.101109,  -0.026781,   1.073815,  -0.790532, -279.000000, -141.000000, -438.000000,   0.485911, -91.042432, -177.923200,   0.015721,  -0.009959,   0.713404,  -0.700433, 
33740,  -0.078147,  -9.725459,  -0.167920,  -0.119097,   0.197255,  -0.100850,  -0.030038,   1.068928,  -0.790786, -280.500000, -142.500000, -438.000000,   0.485313, -91.040200, -177.909616,   0.015801,  -0.010047,   0.713389,  -0.700445, 
33741,  -0.079483,  -9.786086,  -0.223382,  -0.039259,   0.180709,  -0.014202,  -0.022061,   1.061411,  -0.792913, -276.000000, -145.500000, -438.000000,   0.484174, -91.043392, -177.908544,   0.015800,  -0.010061,   0.713408,  -0.700425, 
33742,  -0.117650,  -9.708769,  -0.159941,  -0.119199,   0.188403,  -0.092305,  -0.007417,   1.061677,  -0.808723, -268.500000, -147.000000, -442.500000,   0.488642, -91.040496, -177.927568,   0.015712,  -0.009915,   0.713393,  -0.700445, 
33743,  -0.078977,  -9.814400,  -0.250676,  -0.039013,   0.196249,  -0.068075,  -0.012854,   1.065209,  -0.807498, -271.500000, -145.500000, -442.500000,   0.487913, -91.044944, -177.945232,   0.015599,  -0.009810,   0.713421,  -0.700420, 
33744,  -0.072627,  -9.753985,  -0.093538,  -0.179467,   0.179863,  -0.049606,  -0.015940,   1.061137,  -0.812289, -273.000000, -147.000000, -444.000000,   0.486381, -91.042632, -177.955632,   0.015526,  -0.009754,   0.713408,  -0.700436, 
33745,  -0.073569,  -9.836104,  -0.173011,  -0.015843,   0.219803,  -0.090609,  -0.020831,   1.072726,  -0.805371, -276.000000, -142.500000, -442.500000,   0.486035, -91.041104, -177.959136,   0.015502,  -0.009734,   0.713399,  -0.700447, 
33746,  -0.102920,  -9.743134,  -0.142740,  -0.171186,   0.153288,  -0.023878,  -0.018479,   1.065121,  -0.811387, -274.500000, -145.500000, -444.000000,   0.488488, -91.042192, -177.959920,   0.015513,  -0.009715,   0.713406,  -0.700440, 
33747,  -0.051288,  -9.751100,  -0.173311,   0.013457,   0.109458,  -0.007151,  -0.012512,   1.066838,  -0.816573, -271.500000, -145.500000, -445.500000,   0.486110, -91.038936, -177.968896,   0.015443,  -0.009673,   0.713387,  -0.700461, 
33748,  -0.093744,  -9.752527,  -0.196383,  -0.171056,   0.162052,  -0.049830,  -0.012838,   1.068016,  -0.797845, -271.500000, -144.000000, -439.500000,   0.488118, -91.042080, -177.979136,   0.015393,  -0.009597,   0.713407,  -0.700443, 
33749,  -0.103897,  -9.794037,  -0.131766,   0.059630,   0.140790,  -0.044765,  -0.016607,   1.060685,  -0.784486, -273.000000, -145.500000, -435.000000,   0.489402, -91.034672, -177.985232,   0.015364,  -0.009551,   0.713362,  -0.700490, 
33750,  -0.056381,  -9.759665,  -0.252175,  -0.059528,   0.143787,  -0.092441,  -0.017324,   1.051814,  -0.785641, -273.000000, -148.500000, -435.000000,   0.488141, -91.041408, -177.989456,   0.015330,  -0.009533,   0.713403,  -0.700449, 
33751,  -0.065123,  -9.729549,  -0.151367,  -0.116395,   0.085594,  -0.094101,  -0.010469,   1.063217,  -0.794209, -270.000000, -145.500000, -438.000000,   0.485965, -91.042008, -177.998064,   0.015264,  -0.009493,   0.713408,  -0.700446, 
33752,  -0.074742,  -9.809873,  -0.224018,   0.018193,   0.188094,  -0.090797,  -0.020969,   1.077524,  -0.781528, -276.000000, -139.500000, -435.000000,   0.486363, -91.043696, -178.002752,   0.015238,  -0.009461,   0.713419,  -0.700436, 
33753,  -0.062719,  -9.787322,  -0.160307,  -0.146187,   0.156714,  -0.116373,  -0.030209,   1.068113,  -0.786249, -280.500000, -142.500000, -436.500000,   0.484212, -91.043240, -177.994000,   0.015278,  -0.009529,   0.713415,  -0.700438, 
33754,  -0.098501,  -9.744826,  -0.195823,  -0.110612,   0.188384,  -0.092211,  -0.021548,   1.063855,  -0.806526, -276.000000, -145.500000, -442.500000,   0.483294, -91.044216, -177.984992,   0.015327,  -0.009591,   0.713420,  -0.700431, 
33755,  -0.107250,  -9.772374,  -0.192104,  -0.054786,   0.140811,  -0.092441,  -0.022966,   1.048919,  -0.799183, -276.000000, -150.000000, -439.500000,   0.487769, -91.045024, -177.979648,   0.015387,  -0.009597,   0.713425,  -0.700425, 
33756,  -0.015185,  -9.751643,  -0.207010,  -0.068172,   0.143983,  -0.057720,  -0.028232,   1.053266,  -0.802495, -279.000000, -148.500000, -441.000000,   0.484372, -91.047896, -177.972400,   0.015410,  -0.009663,   0.713442,  -0.700406, 
33757,  -0.174005,  -9.708233,  -0.078197,   0.067593,   0.131605,  -0.292391,  -0.023183,   1.080331,  -0.799354, -277.500000, -139.500000, -441.000000,   0.495865, -91.035720, -177.958256,   0.015569,  -0.009679,   0.713367,  -0.700478, 
33758,  -0.100062,  -9.860542,  -0.249618,  -0.024835,   0.142647,  -0.300949,  -0.018258,   1.074355,  -0.786967, -274.500000, -141.000000, -436.500000,   0.488978, -91.039608, -177.958992,   0.015522,  -0.009717,   0.713390,  -0.700455, 
33759,  -0.134539,  -9.819188,  -0.097913,  -0.192719,   0.118341,   0.091302,  -0.027670,   1.064129,  -0.787150, -279.000000, -144.000000, -436.500000,   0.493318, -91.037008, -177.952352,   0.015590,  -0.009732,   0.713374,  -0.700470, 
33760,   0.093672,  -9.678215,  -0.208509,  -0.119213,   0.188447,  -0.083602,  -0.026814,   1.068202,  -0.809837, -279.000000, -144.000000, -444.000000,   0.480002, -91.036000, -177.947984,   0.015533,  -0.009840,   0.713366,  -0.700477, 
33761,  -0.081806,  -9.799260,  -0.195080,   0.066731,   0.093523,  -0.006847,  -0.011966,   1.074895,  -0.810880, -271.500000, -142.500000, -444.000000,   0.483213, -91.038280, -177.948272,   0.015552,  -0.009819,   0.713380,  -0.700463, 
33762,  -0.134809,  -9.736319,  -0.242711,   0.026324,   0.125314,  -0.187555,  -0.010486,   1.060411,  -0.803862, -270.000000, -147.000000, -441.000000,   0.490383, -91.041280, -177.958384,   0.015534,  -0.009712,   0.713400,  -0.700445, 
33763,  -0.161595,  -9.786835,  -0.207207,  -0.008747,   0.139960,  -0.238932,  -0.019180,   1.059056,  -0.802890, -274.500000, -147.000000, -441.000000,   0.490425, -91.048024, -177.966432,   0.015485,  -0.009663,   0.713442,  -0.700404, 
33764,  -0.162756,  -9.817991,  -0.115499,  -0.162548,   0.116444,  -0.268120,  -0.018617,   1.069919,  -0.787545, -274.500000, -142.500000, -436.500000,   0.493610, -91.043448, -177.966592,   0.015504,  -0.009642,   0.713414,  -0.700432, 
33765,  -0.004149,  -9.764808,  -0.249035,  -0.092234,   0.228315,  -0.006204,  -0.024772,   1.064581,  -0.787474, -277.500000, -144.000000, -436.500000,   0.488549, -91.046824, -177.965952,   0.015476,  -0.009677,   0.713435,  -0.700412, 
33766,   0.015203,  -9.695825,  -0.101106,   0.001714,   0.222655,  -0.299235,  -0.026644,   1.069016,  -0.814375, -279.000000, -144.000000, -445.500000,   0.483746, -91.039176, -177.959088,   0.015489,  -0.009748,   0.713387,  -0.700459, 
33767,  -0.084517,  -9.822882,  -0.196952,   0.094768,   0.162606,   0.179384,  -0.015223,   1.070008,  -0.811134, -273.000000, -144.000000, -444.000000,   0.493604, -91.035448, -177.954400,   0.015579,  -0.009717,   0.713364,  -0.700480, 
33768,  -0.071520,  -9.717217,  -0.166095,  -0.143864,   0.212581,  -0.596918,  -0.018446,   1.070734,  -0.792082, -274.500000, -142.500000, -438.000000,   0.481305, -91.036304, -177.962992,   0.015450,  -0.009739,   0.713369,  -0.700478, 
33769,  -0.174412,  -9.823110,  -0.197032,  -0.196896,   0.116521,  -0.268497,  -0.021515,   1.069468,  -0.787221, -276.000000, -142.500000, -436.500000,   0.473622, -91.042008, -177.965488,   0.015386,  -0.009771,   0.713404,  -0.700444, 
33770,  -0.031566,  -9.707438,  -0.109135,  -0.220446,   0.283924,  -0.596494,  -0.016094,   1.063129,  -0.798098, -273.000000, -145.500000, -439.500000,   0.472522, -91.033712, -177.967056,   0.015370,  -0.009767,   0.713353,  -0.700495, 
33771,   0.090536,  -9.888427,  -0.287758,   0.121820,   0.149399,  -0.656034,  -0.016127,   1.057516,  -0.817404, -273.000000, -148.500000, -445.500000,   0.446233, -91.042808, -177.982416,   0.015112,  -0.009833,   0.713409,  -0.700445, 
33772,  -0.128154,  -9.519920,  -0.001727,  -0.356630,   0.207172,  -1.756850,  -0.019880,   1.052992,  -0.794392, -274.500000, -148.500000, -438.000000,   0.433715, -91.035584, -177.987440,   0.015004,  -0.009877,   0.713364,  -0.700492, 
33773,   0.256498,  -9.828127,  -0.343726,   0.075643,   0.243026,  -3.257060,  -0.024380,   1.074629,  -0.767592, -277.500000, -139.500000, -430.500000,   0.373479, -91.045384, -178.001152,   0.014545,  -0.010162,   0.713421,  -0.700442, 
33774,   0.068669,  -9.601054,  -0.018610,  -0.469403,   0.230308,  -6.004718,  -0.023492,   1.084315,  -0.770974, -277.500000, -136.500000, -432.000000,   0.295319, -91.042872, -178.010336,   0.014002,  -0.010582,   0.713401,  -0.700470, 
33775,  -0.161521,  -9.820338,  -0.126705,   0.057229,   0.192920,  -7.870713,  -0.025301,   1.059331,  -0.783514, -277.500000, -145.500000, -435.000000,   0.221772, -91.033680, -178.009792,   0.013549,  -0.011034,   0.713340,  -0.700538, 
33776,  -0.190917, -10.000073,  -0.331833,  -0.036572,   0.272579,  -2.744297,  -0.020222,   1.051363,  -0.785317, -274.500000, -148.500000, -435.000000,   0.235249, -91.039624, -177.983472,   0.013793,  -0.011116,   0.713375,  -0.700496, 
33777,  -0.076371,  -9.571581,   0.018689,  -0.116454,   0.106603,  -2.182435,  -0.022403,   1.059782,  -0.783838, -276.000000, -145.500000, -435.000000,   0.216983, -91.025680, -177.985184,   0.013670,  -0.011215,   0.713288,  -0.700585, 
33778,  -0.142695,  -9.948851,  -0.334980,   0.200812,   0.143955,  -1.690911,  -0.021173,   1.071097,  -0.796296, -276.000000, -142.500000, -439.500000,   0.209612, -91.030536, -177.984880,   0.013626,  -0.011263,   0.713317,  -0.700556, 
33779,  -0.014583,  -9.641972,  -0.078275,  -0.341183,   0.184962,  -0.869374,  -0.021703,   1.065847,  -0.792336, -276.000000, -144.000000, -438.000000,   0.201553, -91.030616, -177.988448,   0.013554,  -0.011290,   0.713318,  -0.700557, 
33780,  -0.082913,  -9.912599,  -0.258379,   0.294474,   0.201195,  -0.888191,  -0.028044,   1.056887,  -0.797380, -279.000000, -147.000000, -439.500000,   0.198830, -91.029768, -177.986336,   0.013549,  -0.011320,   0.713312,  -0.700563, 
33781,  -0.021282,  -9.729257,  -0.156876,  -0.427717,   0.168869,  -0.574713,  -0.022795,   1.049734,  -0.803721, -276.000000, -150.000000, -441.000000,   0.193054, -91.034944, -177.986000,   0.013515,  -0.011358,   0.713343,  -0.700531, 
33782,  -0.091124,  -9.796330,  -0.162164,   0.207857,   0.203691,  -0.436548,  -0.012854,   1.065209,  -0.807498, -271.500000, -145.500000, -442.500000,   0.195670, -91.030040, -177.994080,   0.013483,  -0.011291,   0.713314,  -0.700563, 
33783,  -0.023098,  -9.801192,  -0.237791,  -0.256058,   0.196235,  -0.363465,  -0.018121,   1.069556,  -0.810810, -274.500000, -144.000000, -444.000000,   0.194229, -91.037832, -178.008640,   0.013384,  -0.011210,   0.713363,  -0.700516, 
33784,  -0.029083,  -9.699158,  -0.119143,  -0.015582,   0.177238,  -0.491697,  -0.017762,   1.073992,  -0.810232, -274.500000, -142.500000, -444.000000,   0.187531, -91.033864, -178.020928,   0.013267,  -0.011174,   0.713340,  -0.700543, 
33785,  -0.039891,  -9.802899,  -0.236737,  -0.152598,   0.194719,  -0.614737,  -0.016857,   1.086484,  -0.803962, -274.500000, -138.000000, -442.500000,   0.185207, -91.036688, -178.031840,   0.013186,  -0.011120,   0.713358,  -0.700528, 
33786,   0.031862,  -9.756087,  -0.144695,  -0.023870,   0.158003,  -0.779328,  -0.011779,   1.078516,  -0.805765, -271.500000, -141.000000, -442.500000,   0.172043, -91.036640, -178.050320,   0.012991,  -0.011086,   0.713359,  -0.700532, 
33787,  -0.009300,  -9.769403,  -0.203437,  -0.056630,   0.208180,  -1.422815,  -0.013213,   1.060774,  -0.808075, -271.500000, -147.000000, -442.500000,   0.157215, -91.037176, -178.070816,   0.012773,  -0.011049,   0.713364,  -0.700533, 
33788,   0.099141,  -9.728579,  -0.148306,   0.012967,   0.186911,  -2.075147,  -0.021548,   1.063855,  -0.806526, -276.000000, -145.500000, -442.500000,   0.125431, -91.035432, -178.088944,   0.012465,  -0.011130,   0.713353,  -0.700551, 
33789,   0.098335,  -9.768759,  -0.148339,   0.074610,   0.163713,  -3.110530,  -0.022141,   1.088024,  -0.816927, -277.500000, -138.000000, -447.000000,   0.081322, -91.030360, -178.102160,   0.012110,  -0.011317,   0.713320,  -0.700590, 
33790,   0.165964,  -9.690985,  -0.172569,   0.000169,   0.237619,  -4.354559,  -0.031176,   1.085041,  -0.806880, -282.000000, -138.000000, -444.000000,   0.020521, -91.029224, -178.104912,   0.011715,  -0.011672,   0.713310,  -0.700606, 
33791,   0.117072,  -9.732209,  -0.141683,  -0.015399,   0.214373,  -5.434308,  -0.018634,   1.067113,  -0.797197, -274.500000, -144.000000, -439.500000,  -0.047514, -91.026296, -178.125664,   0.011165,  -0.011958,   0.713286,  -0.700632, 
33792,   0.101303,  -9.706616,  -0.205521,   0.046906,   0.207461,  -6.765295,  -0.015035,   1.073629,  -0.806019, -273.000000, -142.500000, -442.500000,  -0.122054, -91.027912, -178.151200,   0.010544,  -0.012255,   0.713289,  -0.700630, 
33793,   0.188610,  -9.766013,  -0.232058,   0.014950,   0.255157,  -7.896183,  -0.017420,   1.075621,  -0.819307, -274.500000, -142.500000, -447.000000,  -0.215168, -91.033376, -178.178640,   0.009796,  -0.012654,   0.713313,  -0.700605, 
33794,   0.202591,  -9.648059,  -0.138037,  -0.068491,   0.257027,  -9.315648,  -0.015940,   1.061137,  -0.812289, -273.000000, -147.000000, -444.000000,  -0.320511, -91.031440, -178.209792,   0.008951,  -0.013104,   0.713291,  -0.700626, 
33795,   0.337174,  -9.718881,  -0.162460,   0.228426,   0.360240, -11.625526,  -0.022249,   1.057790,  -0.798028, -276.000000, -147.000000, -439.500000,  -0.459361, -91.029448, -178.239984,   0.007902,  -0.013765,   0.713265,  -0.700649, 
33796,   0.299536,  -9.708888,  -0.192701,   0.038919,   0.340542, -13.641245,  -0.024071,   1.070645,  -0.795972, -277.500000, -142.500000, -439.500000,  -0.619577, -91.032792, -178.270656,   0.006716,  -0.014553,   0.713269,  -0.700640, 
33797,   0.268972,  -9.679049,  -0.142285,   0.200456,   0.358976, -15.385529,  -0.032748,   1.072097,  -0.785347, -282.000000, -141.000000, -436.500000,  -0.783850, -91.026792, -178.285392,   0.005604,  -0.015466,   0.713213,  -0.700688, 
33798,   0.275883,  -9.741902,  -0.182932,   0.152146,   0.377704, -17.166932,  -0.048160,   1.054541,  -0.799650, -289.500000, -147.000000, -441.000000,  -0.963627, -91.025024, -178.281328,   0.004510,  -0.016590,   0.713178,  -0.700709, 
33799,   0.323670,  -9.754338,  -0.131306,   0.128524,   0.397645, -18.309824,  -0.045449,   1.051372,  -0.805089, -288.000000, -148.500000, -442.500000,  -1.157852, -91.021360, -178.286448,   0.003270,  -0.017745,   0.713131,  -0.700742, 
33800,   0.369641,  -9.699827,  -0.133418,   0.210427,   0.370767, -20.059656,  -0.034621,   1.076533,  -0.812248, -283.500000, -141.000000, -445.500000,  -1.366924, -91.016360, -178.314304,   0.001799,  -0.018850,   0.713078,  -0.700786, 
33801,   0.638113,  -9.616028,  -0.199097,   0.180908,   0.551732, -22.971286,  -0.036443,   1.089388,  -0.810192, -285.000000, -136.500000, -445.500000,  -1.625827, -91.015240, -178.357280,  -0.000074,  -0.020165,   0.713030,  -0.700792, 
33802,   0.607057,  -9.649270,  -0.156269,   0.366984,   0.448944, -26.384552,  -0.039870,   1.083686,  -0.805907, -286.500000, -138.000000, -444.000000,  -1.923539, -91.012736, -178.404352,  -0.002215,  -0.021692,   0.712965,  -0.700801, 
33803,   0.559465,  -9.722748,  -0.156084,   0.295370,   0.617115, -29.304606,  -0.040212,   1.082057,  -0.796833, -286.500000, -138.000000, -441.000000,  -2.230696, -91.008488, -178.448144,  -0.004393,  -0.023297,   0.712888,  -0.700819, 
33804,   0.684426,  -9.672590,  -0.212889,   0.331702,   0.563276, -31.906378,  -0.038950,   1.098985,  -0.789985, -286.500000, -132.000000, -439.500000,  -2.573767, -91.008312, -178.506656,  -0.006887,  -0.025031,   0.712834,  -0.700808, 
33805,   0.609470,  -9.689818,  -0.177525,   0.346795,   0.618327, -34.290804,  -0.046896,   1.071469,  -0.792802, -289.500000, -141.000000, -439.500000,  -2.929999, -91.006568, -178.554944,  -0.009399,  -0.026908,   0.712758,  -0.700797, 
33806,   0.711987,  -9.751081,  -0.151885,   0.401327,   0.675247, -36.289900,  -0.052693,   1.070566,  -0.792154, -292.500000, -141.000000, -439.500000,  -3.303266, -91.000632, -178.602208,  -0.012009,  -0.028896,   0.712634,  -0.700789, 
33807,   0.613323,  -9.717693,  -0.132073,   0.404834,   0.671443, -37.813916,  -0.051788,   1.083058,  -0.785884, -292.500000, -136.500000, -438.000000,  -3.678924, -90.993296, -178.655104,  -0.014668,  -0.030863,   0.712502,  -0.700784, 
33808,   0.577246,  -9.775681,  -0.188578,   0.397586,   0.736591, -38.222844,  -0.045992,   1.083961,  -0.786532, -289.500000, -136.500000, -438.000000,  -4.045132, -90.991248, -178.717584,  -0.017329,  -0.032713,   0.712409,  -0.700744, 
33809,   0.642883,  -9.801711,  -0.138991,   0.326733,   0.591639, -37.798788,  -0.045121,   1.090840,  -0.799567, -289.500000, -135.000000, -442.500000,  -4.407289, -90.984928, -178.789920,  -0.020022,  -0.034477,   0.712282,  -0.700711, 
33810,   0.687735,  -9.816618,  -0.165225,   0.425529,   0.679324, -37.032216,  -0.054344,   1.084235,  -0.794635, -294.000000, -136.500000, -441.000000,  -4.760772, -90.978568, -178.854832,  -0.022616,  -0.036234,   0.712145,  -0.700667, 
33811,   0.631514,  -9.801069,  -0.142027,   0.375407,   0.655309, -35.751928,  -0.069160,   1.083155,  -0.774287, -301.500000, -135.000000, -435.000000,  -5.094081, -90.973896, -178.901472,  -0.024972,  -0.037981,   0.712021,  -0.700618, 
33812,   0.692381,  -9.824562,  -0.140540,   0.419270,   0.592705, -33.854352,  -0.082933,   1.089769,  -0.771513, -309.000000, -132.000000, -435.000000,  -5.399784, -90.966936, -178.931840,  -0.027057,  -0.039661,   0.711889,  -0.700591, 
33813,   0.841545,  -9.777037,  -0.177035,   0.206895,   0.653873, -32.612050,  -0.074239,   1.091123,  -0.772485, -304.500000, -132.000000, -435.000000,  -5.707811, -90.963704, -178.991024,  -0.029333,  -0.041176,   0.711783,  -0.700526, 
33814,   0.882496,  -9.756995,  -0.168454,   0.240630,   0.635203, -31.797800,  -0.070657,   1.094833,  -0.790959, -303.000000, -132.000000, -441.000000,  -6.007034, -90.961192, -179.064224,  -0.031639,  -0.042549,   0.711675,  -0.700435, 
33815,   0.929664,  -9.775615,  -0.180508,   0.262379,   0.484672, -30.873852,  -0.091676,   1.079995,  -0.799498, -313.500000, -136.500000, -444.000000,  -6.296596, -90.959696, -179.109664,  -0.033715,  -0.044035,   0.711569,  -0.700348, 
33816,   1.026129,  -9.794874,  -0.167933,   0.337189,  -0.042146, -29.673648,  -0.100712,   1.077011,  -0.789451, -318.000000, -136.500000, -441.000000,  -6.580964, -90.958928, -179.147904,  -0.035716,  -0.045535,   0.711468,  -0.700258, 
33817,   0.976153,  -9.746764,  -0.224995,   0.523192,  -2.142398, -27.819404,  -0.094574,   1.079543,  -0.799174, -315.000000, -136.500000, -444.000000,  -6.841404, -90.961024, -179.185056,  -0.037563,  -0.046894,   0.711395,  -0.700157, 
33818,   1.036642,  -9.743385,  -0.196673,   0.767742,  -4.442802, -25.647036,  -0.100028,   1.080269,  -0.807601, -318.000000, -136.500000, -447.000000,  -7.078030, -90.962952, -179.197808,  -0.039112,  -0.048259,   0.711317,  -0.700067, 
33819,   1.275128,  -9.729136,  -0.187344,   0.994145,  -6.793017, -23.754242,  -0.102193,   1.091495,  -0.796469, -319.500000, -132.000000, -444.000000,  -7.314773, -90.961368, -179.201824,  -0.040606,  -0.049679,   0.711199,  -0.699988, 
33820,   1.432704,  -9.655252,  -0.152218,   1.302804,  -9.471999, -23.889338,  -0.096755,   1.087963,  -0.797695, -316.500000, -133.500000, -444.000000,  -7.569859, -90.961552, -179.206784,  -0.042220,  -0.051204,   0.711085,  -0.699891, 
33821,   1.483758,  -9.607304,  -0.060591,   1.884005, -12.520514, -24.847036,  -0.103455,   1.074568,  -0.803317, -319.500000, -138.000000, -445.500000,  -7.834706, -90.951192, -179.180256,  -0.043698,  -0.052989,   0.710887,  -0.699867, 
33822,   1.630608,  -9.702810,  -0.148152,   2.418278, -15.865108, -25.738954,  -0.114314,   1.084439,  -0.791214, -325.500000, -133.500000, -442.500000,  -8.118286, -90.944792, -179.119776,  -0.045087,  -0.055097,   0.710688,  -0.699827, 
33823,   1.566765,  -9.590411,  -0.110125,   2.875167, -19.389726, -26.498582,  -0.111587,   1.084076,  -0.787000, -324.000000, -133.500000, -441.000000,  -8.407076, -90.941160, -179.036016,  -0.046367,  -0.057380,   0.710490,  -0.699779, 
33824,   1.996423,  -9.555352,  -0.197194,   3.290998, -22.678534, -27.553270,  -0.105637,   1.082987,  -0.801838, -321.000000, -135.000000, -445.500000,  -8.731493, -90.942128, -178.948816,  -0.047849,  -0.059898,   0.710277,  -0.699672, 
33825,   1.628572,  -9.671662,  -0.087294,   4.370321, -25.746734, -28.657650,  -0.117945,   1.072310,  -0.801697, -327.000000, -138.000000, -445.500000,  -9.030978, -90.933528, -178.805648,  -0.048828,  -0.062614,   0.709985,  -0.699661, 
33826,   1.999565,  -9.698840,  -0.262776,   4.384525, -27.948834, -29.610432,  -0.121202,   1.067423,  -0.801951, -328.500000, -139.500000, -445.500000,  -9.365556, -90.946848, -178.649056,  -0.049957,  -0.065618,   0.709795,  -0.699511, 
33827,   1.770021,  -9.484803,  -0.143948,   5.220528, -30.410728, -30.550064,  -0.113818,   1.084076,  -0.814479, -325.500000, -135.000000, -450.000000,  -9.700727, -90.949776, -178.495152,  -0.051099,  -0.068612,   0.709530,  -0.699422, 
33828,   2.226320,  -9.623936,  -0.361953,   5.386759, -32.090976, -32.022778,  -0.130985,   1.090601,  -0.788115, -334.500000, -130.500000, -442.500000, -10.070913, -90.970568, -178.315792,  -0.052314,  -0.071966,   0.709310,  -0.699204, 
33829,   2.032716,  -9.505828,  -0.215185,   6.054215, -33.497982, -33.763604,  -0.148544,   1.087078,  -0.781633, -343.500000, -130.500000, -441.000000, -10.433173, -90.978624, -178.099360,  -0.053246,  -0.075505,   0.708974,  -0.699082, 
33830,   2.121570,  -9.692110,  -0.334453,   6.185445, -34.276784, -34.663692,  -0.154373,   1.080562,  -0.800290, -346.500000, -133.500000, -447.000000, -10.810854, -91.001464, -177.874704,  -0.054235,  -0.079180,   0.708705,  -0.698874, 
33831,   1.991134,  -9.452099,  -0.099196,   6.647240, -34.501112, -34.836652,  -0.151304,   1.081828,  -0.805151, -345.000000, -133.500000, -448.500000, -11.173250, -91.003280, -177.660400,  -0.055179,  -0.082707,   0.708316,  -0.698806, 
33832,   2.015618,  -9.721366,  -0.260312,   6.762429, -34.099836, -34.593268,  -0.143327,   1.074311,  -0.807279, -340.500000, -136.500000, -448.500000, -11.535683, -91.017088, -177.468112,  -0.056266,  -0.086089,   0.707986,  -0.698641, 
33833,   2.072873,  -9.446099,  -0.008877,   6.582370, -33.100064, -33.994400,  -0.160903,   1.067981,  -0.810450, -349.500000, -138.000000, -450.000000, -11.890780, -91.011120, -177.272864,  -0.057274,  -0.089452,   0.707525,  -0.698604, 
33834,   2.008698,  -9.656027,  -0.108056,   6.611092, -31.889064, -33.746288,  -0.180455,   1.076498,  -0.797374, -360.000000, -133.500000, -447.000000, -12.237454, -91.009168, -177.074480,  -0.058214,  -0.092780,   0.707078,  -0.698547, 
33835,   2.065216,  -9.463955,   0.076626,   6.425307, -30.705600, -33.762128,  -0.192235,   1.071071,  -0.801193, -366.000000, -135.000000, -448.500000, -12.588895, -91.000984, -176.894624,  -0.059291,  -0.096024,   0.706591,  -0.698519, 
33836,   2.189505,  -9.603513,  -0.142083,   6.481924, -29.272070, -33.474942,  -0.195491,   1.066184,  -0.801447, -367.500000, -136.500000, -448.500000, -12.929435, -90.998296, -176.723600,  -0.060358,  -0.099141,   0.706128,  -0.698443, 
33837,   2.263914,  -9.437494,   0.032093,   6.253873, -27.943914, -33.044816,  -0.201287,   1.065281,  -0.800799, -370.500000, -136.500000, -448.500000, -13.272004, -90.989448, -176.575408,  -0.061571,  -0.102131,   0.705633,  -0.698393, 
33838,   2.379901,  -9.602335,  -0.236269,   6.376734, -26.750474, -32.708950,  -0.207254,   1.063564,  -0.795613, -373.500000, -136.500000, -447.000000, -13.600596, -90.989584, -176.435760,  -0.062757,  -0.104979,   0.705209,  -0.698296, 
33839,   2.383285,  -9.473310,  -0.035500,   6.026782, -25.609350, -32.379230,  -0.207067,   1.067185,  -0.790498, -373.500000, -135.000000, -445.500000, -13.924248, -90.980792, -176.317024,  -0.064032,  -0.107672,   0.704749,  -0.698250, 
33840,   2.455098,  -9.478696,  -0.155362,   6.298791, -24.949542, -31.955474,  -0.217942,   1.074250,  -0.788047, -379.500000, -132.000000, -445.500000, -14.244411, -90.977920, -176.211072,  -0.065368,  -0.110260,   0.704324,  -0.698151, 
33841,   2.478703,  -9.466564,  -0.057211,   6.249247, -24.708034, -31.716750,  -0.220498,   1.075427,  -0.796798, -381.000000, -132.000000, -448.500000, -14.557323, -90.969320, -176.112256,  -0.066696,  -0.112762,   0.703863,  -0.698082, 
33842,   2.476461,  -9.531013,  -0.031894,   6.598900, -24.903034, -31.420462,  -0.223583,   1.071355,  -0.801589, -382.500000, -133.500000, -450.000000, -14.865267, -90.954960, -176.020160,  -0.068028,  -0.115195,   0.703376,  -0.698049, 
33843,   2.588294,  -9.413383,   0.023904,   6.657860, -25.844818, -31.166748,  -0.232123,   1.068008,  -0.814807, -387.000000, -135.000000, -454.500000, -15.175669, -90.940032, -175.926832,  -0.069367,  -0.117651,   0.702878,  -0.698022, 
33844,   2.491622,  -9.450218,   0.022568,   7.568794, -27.418612, -30.610282,  -0.238448,   1.061855,  -0.810199, -390.000000, -136.500000, -453.000000, -15.471338, -90.919552, -175.815824,  -0.070501,  -0.120129,   0.702341,  -0.698052, 
33845,   2.581572,  -9.455865,   0.003169,   7.832645, -29.238194, -29.699784,  -0.244586,   1.059323,  -0.800476, -393.000000, -136.500000, -450.000000, -15.757642, -90.907552, -175.683488,  -0.071453,  -0.122672,   0.701810,  -0.698024, 
33846,   2.656599,  -9.420742,   0.018506,   8.569589, -31.052158, -29.219122,  -0.256895,   1.048646,  -0.800335, -399.000000, -139.500000, -450.000000, -16.041555, -90.892032, -175.530304,  -0.072259,  -0.125328,   0.701232,  -0.698034, 
33847,   2.789408,  -9.379260,  -0.015884,   9.296395, -33.117978, -29.291334,  -0.257270,   1.041404,  -0.810565, -399.000000, -142.500000, -453.000000, -16.335180, -90.883880, -175.359072,  -0.073022,  -0.128149,   0.700662,  -0.698008, 
33848,   2.903891,  -9.346695,   0.018629,  10.050727, -35.106812, -29.953676,  -0.253843,   1.047106,  -0.814849, -397.500000, -141.000000, -454.500000, -16.638597, -90.869304, -175.185360,  -0.073824,  -0.131046,   0.700033,  -0.698022, 
33849,   2.997304,  -9.354182,   0.027583,  10.863926, -37.311944, -31.141388,  -0.267241,   1.060961,  -0.801844, -405.000000, -135.000000, -451.500000, -16.959614, -90.857024, -175.001328,  -0.074675,  -0.134109,   0.699375,  -0.698018, 
33850,   3.054356,  -9.304243,   0.059321,  11.773171, -39.384688, -32.491046,  -0.273379,   1.058429,  -0.792121, -408.000000, -135.000000, -448.500000, -17.291168, -90.840576, -174.795504,  -0.075450,  -0.137366,   0.698629,  -0.698036, 
33851,   3.216150,  -9.287813,   0.051751,  12.737598, -41.378408, -34.410180,  -0.283336,   1.040147,  -0.797997, -412.500000, -141.000000, -450.000000, -17.656202, -90.825488, -174.572512,  -0.076329,  -0.140927,   0.697823,  -0.698043, 
33852,   3.367818,  -9.173754,   0.069418,  13.671268, -43.711688, -37.612124,  -0.292421,   1.028744,  -0.816907, -417.000000, -145.500000, -456.000000, -18.057508, -90.807128, -174.327600,  -0.077295,  -0.144839,   0.696911,  -0.698067, 
33853,   3.409333,  -9.243375,   0.025943,  14.892653, -46.056488, -40.619636,  -0.298609,   1.017792,  -0.836142, -420.000000, -150.000000, -462.000000, -18.490446, -90.795160, -174.059584,  -0.078320,  -0.149069,   0.695928,  -0.698029, 
33854,   3.424505,  -9.172065,  -0.009239,  15.758611, -48.131792, -43.463812,  -0.304063,   1.018518,  -0.844569, -423.000000, -150.000000, -465.000000, -18.941924, -90.790288, -173.771232,  -0.079344,  -0.153522,   0.694908,  -0.697944, 
33855,   3.471974,  -9.212344,  -0.130946,  16.979684, -49.668188, -45.518988,  -0.310201,   1.015987,  -0.834846, -426.000000, -150.000000, -462.000000, -19.416096, -90.794592, -173.469040,  -0.080437,  -0.158184,   0.693879,  -0.697813, 
33856,   3.426446,  -9.207980,  -0.084200,  17.431122, -50.551576, -46.238516,  -0.325033,   1.012100,  -0.824150, -433.500000, -150.000000, -459.000000, -19.879920, -90.801080, -173.143728,  -0.081329,  -0.162917,   0.692817,  -0.697693, 
33857,   3.574994,  -9.212149,  -0.177915,  18.223164, -50.704596, -46.622204,  -0.338384,   0.993730,  -0.806437, -439.500000, -154.500000, -453.000000, -20.349316, -90.810680, -172.803200,  -0.082166,  -0.167760,   0.691696,  -0.697546, 
33858,   3.622675,  -9.158544,  -0.085064,  18.320382, -50.247504, -47.267668,  -0.344539,   0.988391,  -0.806367, -442.500000, -156.000000, -453.000000, -20.825166, -90.813696, -172.462768,  -0.083035,  -0.172640,   0.690495,  -0.697439, 
33859,   3.676750,  -9.115893,  -0.188108,  18.667552, -49.234128, -48.030076,  -0.355259,   0.993464,  -0.818106, -448.500000, -154.500000, -457.500000, -21.300084, -90.819504, -172.133232,  -0.083969,  -0.177437,   0.689298,  -0.697309, 
33860,   3.626135,  -9.112623,  -0.000023,  18.448792, -47.905996, -48.573604,  -0.367039,   0.988037,  -0.821924, -454.500000, -156.000000, -459.000000, -21.772832, -90.810472, -171.822208,  -0.084979,  -0.182113,   0.688006,  -0.697253, 
33861,   3.677005,  -9.114141,  -0.000826,  18.410260, -46.181200, -49.556800,  -0.378989,   0.981796,  -0.821206, -460.500000, -157.500000, -459.000000, -22.251174, -90.805456, -171.523488,  -0.086106,  -0.186739,   0.686732,  -0.697172, 
33862,   3.808328,  -9.046729,   0.076329,  18.056970, -44.454984, -50.596620,  -0.400913,   0.954466,  -0.836015, -471.000000, -166.500000, -463.500000, -22.746204, -90.793240, -171.234944,  -0.087382,  -0.191395,   0.685352,  -0.697092, 
33863,   3.753582,  -9.107694,   0.036994,  18.066772, -42.590660, -51.136816,  -0.407084,   0.946321,  -0.845598, -474.000000, -169.500000, -466.500000, -23.232920, -90.776584, -170.950848,  -0.088625,  -0.195970,   0.683934,  -0.697038, 
33864,   3.853555,  -9.082170,  -0.029586,  17.537314, -40.695004, -51.397136,  -0.412334,   0.953474,  -0.839257, -477.000000, -166.500000, -465.000000, -23.711246, -90.769688, -170.687824,  -0.089961,  -0.200359,   0.682612,  -0.696930, 
33865,   3.957374,  -8.930487,   0.056470,  17.391468, -39.102324, -51.198320,  -0.413051,   0.944603,  -0.840412, -477.000000, -169.500000, -465.000000, -24.197920, -90.747640, -170.464512,  -0.091562,  -0.204562,   0.681219,  -0.696865, 
33866,   4.020358,  -9.109296,  -0.106853,  17.172888, -37.607608, -51.442028,  -0.417196,   0.930031,  -0.837283, -478.500000, -174.000000, -463.500000, -24.672774, -90.740744, -170.252032,  -0.093182,  -0.208612,   0.679935,  -0.696707, 
33867,   4.079234,  -8.887307,   0.015441,  17.202352, -36.676292, -51.575044,  -0.425702,   0.932297,  -0.831196, -483.000000, -172.500000, -462.000000, -25.159498, -90.720696, -170.063632,  -0.094996,  -0.212595,   0.678575,  -0.696600, 
33868,   4.027373,  -9.014212,  -0.091392,  17.149062, -35.668132, -51.407828,  -0.436423,   0.937370,  -0.842935, -489.000000, -171.000000, -466.500000, -25.627828, -90.710584, -169.879888,  -0.096740,  -0.216423,   0.677279,  -0.696424, 
33869,   4.019335,  -8.936956,   0.010764,  17.074526, -34.765308, -50.583244,  -0.447640,   0.942806,  -0.831409, -495.000000, -168.000000, -463.500000, -26.080100, -90.696592, -169.707088,  -0.098443,  -0.220089,   0.675992,  -0.696272, 
33870,   4.000832,  -8.985874,  -0.018390,  17.091456, -34.189688, -49.337008,  -0.460787,   0.930863,  -0.798928, -501.000000, -169.500000, -453.000000, -26.512632, -90.682408, -169.528560,  -0.099991,  -0.223673,   0.674723,  -0.696151, 
33871,   4.140268,  -8.848866,   0.112971,  17.293038, -33.827236, -47.941680,  -0.473642,   0.912130,  -0.804480, -507.000000, -175.500000, -454.500000, -26.945836, -90.663616, -169.345888,  -0.101505,  -0.227281,   0.673392,  -0.696051, 
33872,   4.329712,  -8.882641,  -0.002885,  17.462238, -33.626952, -46.964432,  -0.470606,   0.907783,  -0.828646, -505.500000, -178.500000, -462.000000, -27.376326, -90.650936, -169.171936,  -0.103066,  -0.230809,   0.672099,  -0.695902, 
33873,   4.379775,  -8.715297,   0.075503,  17.857932, -33.543496, -46.313600,  -0.473692,   0.903710,  -0.833437, -507.000000, -180.000000, -463.500000, -27.808216, -90.629880, -169.021760,  -0.104763,  -0.234212,   0.670792,  -0.695787, 
33874,   4.504964,  -8.788645,  -0.087679,  18.376602, -33.780288, -45.216488,  -0.488540,   0.897017,  -0.832394, -514.500000, -181.500000, -463.500000, -28.225204, -90.618152, -168.861200,  -0.106324,  -0.237576,   0.669537,  -0.695639, 
33875,   4.597651,  -8.578630,   0.115515,  18.764238, -34.167672, -44.249208,  -0.503405,   0.887518,  -0.841004, -522.000000, -184.500000, -466.500000, -28.642962, -90.591648, -168.697952,  -0.107838,  -0.240963,   0.668153,  -0.695558, 
33876,   4.816396,  -8.653528,  -0.019167,  19.404950, -34.620496, -43.792804,  -0.501428,   0.872671,  -0.857251, -520.500000, -190.500000, -471.000000, -29.069144, -90.573656, -168.532048,  -0.109404,  -0.244401,   0.666782,  -0.695421, 
33877,   4.885503,  -8.433257,   0.121957,  20.073504, -35.268596, -44.014528,  -0.511181,   0.860816,  -0.848359, -525.000000, -193.500000, -468.000000, -29.508170, -90.546480, -168.370512,  -0.111056,  -0.247894,   0.665330,  -0.695329, 
33878,   4.922374,  -8.505155,   0.041330,  21.030022, -36.145260, -43.767180,  -0.532355,   0.847970,  -0.842709, -535.500000, -196.500000, -466.500000, -29.945048, -90.519208, -168.166080,  -0.112428,  -0.251610,   0.663751,  -0.695257, 
33879,   4.824726,  -8.446959,   0.101429,  21.779432, -37.430376, -42.493716,  -0.530361,   0.835930,  -0.849303, -534.000000, -201.000000, -468.000000, -30.359980, -90.500216, -167.947248,  -0.113597,  -0.255273,   0.662229,  -0.695180, 
33880,   4.975215,  -8.466409,   0.063586,  23.278914, -39.130796, -40.331676,  -0.536158,   0.835027,  -0.848655, -537.000000, -201.000000, -468.000000, -30.766452, -90.484832, -167.718912,  -0.114664,  -0.258935,   0.660717,  -0.695109, 
33881,   5.182131,  -8.344279,   0.034523,  24.535600, -41.208384, -38.979680,  -0.546503,   0.847342,  -0.850164, -543.000000, -196.500000, -469.500000, -31.170000, -90.483536, -167.479792,  -0.115679,  -0.262618,   0.659247,  -0.694963, 
33882,   5.299720,  -8.236541,  -0.004067,  26.496846, -43.444696, -38.780240,  -0.556802,   0.827431,  -0.846964, -547.500000, -202.500000, -468.000000, -31.584012, -90.482040, -167.208432,  -0.116560,  -0.266535,   0.657647,  -0.694829, 
33883,   5.418451,  -8.274140,  -0.064585,  28.049512, -45.397868, -39.067620,  -0.564920,   0.799100,  -0.845244, -550.500000, -211.500000, -466.500000, -31.994704, -90.486848, -166.890160,  -0.117151,  -0.270685,   0.655960,  -0.694712, 
33884,   5.498936,  -8.147362,  -0.092817,  29.711660, -47.647136, -39.802912,  -0.573255,   0.802181,  -0.843694, -555.000000, -210.000000, -466.500000, -32.418240, -90.493688, -166.556704,  -0.117734,  -0.274986,   0.654201,  -0.694595, 
33885,   5.491700,  -8.206569,  -0.015599,  31.499136, -49.380780, -40.545072,  -0.582854,   0.788335,  -0.848992, -559.500000, -214.500000, -468.000000, -32.839210, -90.490272, -166.195824,  -0.118110,  -0.279423,   0.652281,  -0.694557, 
33886,   5.590815,  -8.190617,   0.087248,  32.661762, -50.871704, -41.072228,  -0.586640,   0.778198,  -0.845286, -561.000000, -217.500000, -466.500000, -33.264832, -90.482088, -165.818688,  -0.118405,  -0.283973,   0.650258,  -0.694566, 
33887,   5.592225,  -8.054662,   0.062564,  34.308060, -52.088148, -41.632688,  -0.593341,   0.764803,  -0.850907, -564.000000, -222.000000, -468.000000, -33.694680, -90.469040, -165.426864,  -0.118623,  -0.288621,   0.648124,  -0.694612, 
33888,   5.685597,  -8.047423,   0.098085,  35.135188, -52.842088, -42.576888,  -0.601288,   0.737287,  -0.853724, -567.000000, -231.000000, -468.000000, -34.127756, -90.447032, -164.804928,  -0.117441,  -0.294575,   0.645299,  -0.694935, 
33889,   5.737472,  -8.002088,   0.074896,  36.065672, -52.780356, -44.010236,  -0.603436,   0.751319,  -0.832941, -568.500000, -225.000000, -462.000000, -34.577200, -90.419768, -164.179376,  -0.116320,  -0.300620,   0.642335,  -0.695273, 
33890,   5.580895,  -8.006831,   0.106184,  36.016544, -51.906580, -45.387720,  -0.626807,   0.744086,  -0.835464, -580.500000, -226.500000, -463.500000, -35.023248, -90.395048, -163.552880,  -0.115179,  -0.306627,   0.639347,  -0.695610, 
33891,   5.640733,  -8.177772,   0.062252,  35.506404, -50.627576, -46.005932,  -0.643636,   0.711595,  -0.842424, -588.000000, -237.000000, -465.000000, -35.460580, -90.390728, -162.924272,  -0.114022,  -0.312547,   0.636438,  -0.695833, 
33892,   5.672242,  -8.047777,  -0.000572,  34.798820, -48.421444, -46.322648,  -0.645053,   0.696659,  -0.835081, -588.000000, -241.500000, -462.000000, -35.901820, -90.388016, -162.314224,  -0.113005,  -0.318352,   0.633515,  -0.696013, 
33893,   5.672965,  -8.037115,  -0.015903,  33.510060, -45.974952, -46.867772,  -0.649027,   0.682901,  -0.836490, -589.500000, -246.000000, -462.000000, -36.340264, -90.392448, -161.724272,  -0.112116,  -0.324011,   0.630673,  -0.696165, 
33894,   5.653392,  -8.022798,  -0.045548,  32.070510, -43.072268, -46.988712,  -0.660448,   0.681910,  -0.839731, -595.500000, -246.000000, -463.500000, -36.760584, -90.385248, -161.171664,  -0.111306,  -0.329338,   0.627843,  -0.696330, 
33895,   5.627747,  -7.946243,   0.153198,  30.589236, -40.825100, -46.582176,  -0.669142,   0.680555,  -0.838759, -600.000000, -246.000000, -463.500000, -37.175612, -90.361536, -160.657904,  -0.110651,  -0.334420,   0.625003,  -0.696560, 
33896,   5.589646,  -8.132306,  -0.124589,  30.033534, -38.601872, -45.217256,  -0.667302,   0.670507,  -0.831163, -598.500000, -249.000000, -460.500000, -37.556972, -90.354536, -160.157936,  -0.109923,  -0.339213,   0.622374,  -0.696725, 
33897,   5.443895,  -7.886224,   0.056852,  28.928536, -37.075924, -43.026572,  -0.664763,   0.666523,  -0.832065, -597.000000, -250.500000, -460.500000, -37.910696, -90.333136, -159.688352,  -0.109167,  -0.343683,   0.619790,  -0.696960, 
33898,   5.696225,  -8.090659,  -0.190455,  28.287126, -35.596528, -41.031792,  -0.686996,   0.643177,  -0.818494, -607.500000, -256.500000, -456.000000, -38.251836, -90.344936, -159.213136,  -0.108397,  -0.348065,   0.617393,  -0.697027, 
33899,   5.638766,  -7.866414,  -0.216108,  27.562496, -34.005936, -39.949752,  -0.706144,   0.623903,  -0.800133, -616.500000, -261.000000, -450.000000, -38.582856, -90.360640, -158.754048,  -0.107677,  -0.352287,   0.615071,  -0.697069, 
33900,   5.704821,  -7.990367,  -0.118913,  26.279912, -32.387218, -38.838556,  -0.706690,   0.615847,  -0.805825, -616.500000, -264.000000, -451.500000, -38.897188, -90.379664, -158.310464,  -0.106959,  -0.356313,   0.612836,  -0.697087, 
33901,   5.803182,  -7.846271,   0.033590,  25.674034, -30.966550, -37.880072,  -0.721726,   0.605533,  -0.809898, -624.000000, -267.000000, -453.000000, -39.213540, -90.374520, -157.900944,  -0.106389,  -0.360185,   0.610541,  -0.697217, 
33902,   5.947315,  -7.806886,   0.148003,  24.832408, -29.909170, -36.747876,  -0.722785,   0.595033,  -0.801978, -624.000000, -270.000000, -450.000000, -39.523744, -90.348032, -157.518384,  -0.105877,  -0.363887,   0.608199,  -0.697442, 
33903,   6.153338,  -7.663649,   0.211013,  24.821552, -29.213630, -36.422332,  -0.722972,   0.591412,  -0.807093, -624.000000, -271.500000, -451.500000, -39.848848, -90.305920, -157.155920,  -0.105522,  -0.367548,   0.605733,  -0.697690, 
33904,   6.277764,  -7.608569,   0.191322,  24.786754, -28.560304, -37.411944,  -0.737512,   0.580734,  -0.834430, -631.500000, -276.000000, -460.500000, -40.193364, -90.263016, -156.798992,  -0.105317,  -0.371276,   0.603206,  -0.697930, 
33905,   6.266314,  -7.590605,   0.089741,  24.775588, -28.120458, -38.387688,  -0.747297,   0.563267,  -0.844843, -636.000000, -282.000000, -463.500000, -40.547408, -90.234696, -156.437680,  -0.105190,  -0.375055,   0.600711,  -0.698100, 
33906,   6.248310,  -7.606208,  -0.059715,  24.508556, -27.447096, -39.040088,  -0.744725,   0.564896,  -0.826440, -634.500000, -280.500000, -457.500000, -40.901968, -90.229856, -156.065856,  -0.105078,  -0.378858,   0.598301,  -0.698158, 
33907,   6.325737,  -7.529566,  -0.132856,  23.924566, -26.601198, -39.144636,  -0.748340,   0.555574,  -0.827271, -636.000000, -283.500000, -457.500000, -41.256620, -90.235752, -155.696544,  -0.105014,  -0.382606,   0.595915,  -0.698128, 
33908,   6.346601,  -7.458715,  -0.039078,  23.671080, -25.716480, -39.240980,  -0.757580,   0.546163,  -0.831991, -640.500000, -286.500000, -459.000000, -41.618516, -90.232024, -155.342912,  -0.105059,  -0.386313,   0.593488,  -0.698141, 
33909,   6.367507,  -7.535708,  -0.098909,  23.373094, -25.015374, -38.922364,  -0.754291,   0.556663,  -0.812433, -639.000000, -282.000000, -453.000000, -41.961292, -90.227040, -154.996608,  -0.105029,  -0.389876,   0.591131,  -0.698185, 
33910,   6.532992,  -7.254335,   0.093597,  23.258906, -24.859098, -38.758392,  -0.750938,   0.537743,  -0.778513, -636.000000, -286.500000, -441.000000, -42.328832, -90.209288, -154.664912,  -0.105195,  -0.393489,   0.588641,  -0.698259, 
33911,   6.501407,  -7.393193,  -0.126142,  24.060492, -24.999922, -39.071168,  -0.761596,   0.513397,  -0.775891, -640.500000, -294.000000, -439.500000, -42.694548, -90.204888, -154.320384,  -0.105314,  -0.397116,   0.586149,  -0.698250, 
33912,   5.997290,  -7.395394,   0.002426,  24.151728, -25.252410, -36.396076,  -0.782444,   0.499373,  -0.788968, -651.000000, -298.500000, -444.000000, -42.996200, -90.198672, -153.974000,  -0.105024,  -0.400422,   0.583852,  -0.698323, 
33913,   5.927046,  -7.599957,  -0.179548,  25.160396, -25.869510, -29.396828,  -0.786776,   0.481180,  -0.790954, -652.500000, -304.500000, -444.000000, -43.323208, -90.191944, -153.620160,  -0.104844,  -0.403888,   0.581427,  -0.698394, 
33914,   6.295706,  -7.234677,  -0.073928,  25.295224, -26.305316, -23.684284,  -0.786247,   0.486430,  -0.794914, -652.500000, -303.000000, -445.500000, -43.553972, -90.190520, -153.256928,  -0.104038,  -0.406902,   0.579329,  -0.698540, 
33915,   6.455354,  -7.235279,  -0.098050,  26.161064, -26.558110, -20.912668,  -0.794770,   0.485890,  -0.798480, -657.000000, -303.000000, -447.000000, -43.726732, -90.182992, -152.890144,  -0.102829,  -0.409621,   0.577350,  -0.698743, 
33916,   6.404378,  -7.314783,  -0.168648,  25.439898, -26.313632, -19.033534,  -0.796717,   0.465704,  -0.787177, -657.000000, -309.000000, -442.500000, -43.862640, -90.201632, -152.504416,  -0.101373,  -0.412222,   0.575587,  -0.698867, 
33917,   6.441260,  -7.163418,   0.057696,  25.286072, -25.633038, -16.075741,  -0.803572,   0.454301,  -0.778609, -660.000000, -312.000000, -439.500000, -43.989660, -90.186056, -152.151104,  -0.099939,  -0.414643,   0.573761,  -0.699148, 
33918,   6.658826,  -7.320381,  -0.254362,  24.613810, -24.863286, -14.089068,  -0.809571,   0.446971,  -0.792729, -663.000000, -315.000000, -444.000000, -44.092624, -90.209936, -151.775472,  -0.098364,  -0.417015,   0.572172,  -0.699268, 
33919,   6.817393,  -7.010966,  -0.121756,  23.752588, -24.062982, -14.150091,  -0.807578,   0.434930,  -0.799323, -661.500000, -319.500000, -445.500000, -44.224152, -90.227880, -151.418064,  -0.097053,  -0.419429,   0.570489,  -0.699364, 
33920,   7.156831,  -7.070171,  -0.306611,  23.260838, -23.156692, -16.525948,  -0.812064,   0.418729,  -0.787119, -663.000000, -324.000000, -441.000000, -44.394192, -90.267640, -151.054032,  -0.096018,  -0.422045,   0.568768,  -0.699330, 
33921,   7.502603,  -6.822683,  -0.222160,  22.452586, -22.230584, -21.755634,  -0.812953,   0.409043,  -0.783736, -663.000000, -327.000000, -439.500000, -44.644172, -90.307152, -150.702464,  -0.095551,  -0.424989,   0.566791,  -0.699231, 
33922,   7.699539,  -6.792905,  -0.316541,  21.848112, -20.799392, -29.418666,  -0.812611,   0.410672,  -0.792811, -663.000000, -327.000000, -442.500000, -44.895948, -90.300768, -150.394224,  -0.095191,  -0.427758,   0.564677,  -0.699326, 
33923,   7.657324,  -6.712159,  -0.252210,  20.473916, -19.274338, -37.825356,  -0.823285,   0.383519,  -0.799842, -667.500000, -336.000000, -444.000000, -45.276828, -90.319256, -150.086784,  -0.095717,  -0.431106,   0.562198,  -0.699169, 
33924,   7.394548,  -6.798308,  -0.136785,  19.219000, -17.426828, -43.799776,  -0.819499,   0.393656,  -0.803548, -666.000000, -333.000000, -445.500000, -45.745324, -90.346824, -149.793136,  -0.096900,  -0.434792,   0.559478,  -0.698889, 
33925,   7.170099,  -6.815906,   0.035628,  17.799400, -15.922472, -46.385072,  -0.826150,   0.388681,  -0.780213, -669.000000, -333.000000, -438.000000, -46.204376, -90.326720, -149.555280,  -0.098187,  -0.438192,   0.556705,  -0.698817, 
33926,   7.332486,  -6.696192,   0.166559,  17.105702, -14.960823, -48.072708,  -0.834064,   0.366778,  -0.763725, -672.000000, -339.000000, -432.000000, -46.691644, -90.293920, -149.342864,  -0.099750,  -0.441596,   0.553818,  -0.698751, 
33927,   7.303761,  -6.674081,   0.061508,  17.200750, -14.478267, -49.542584,  -0.837133,   0.365512,  -0.758863, -673.500000, -339.000000, -430.500000, -47.188956, -90.252344, -149.144976,  -0.101426,  -0.444970,   0.550875,  -0.698700, 
33928,   7.225734,  -6.753050,  -0.096045,  16.935212, -14.062551, -50.325252,  -0.838054,   0.350213,  -0.774786, -673.500000, -345.000000, -435.000000, -47.672304, -90.248008, -148.922016,  -0.103008,  -0.448352,   0.548099,  -0.698503, 
33929,   7.149867,  -6.544610,   0.049236,  17.375130, -14.239294, -49.701776,  -0.847465,   0.339988,  -0.774969, -678.000000, -348.000000, -435.000000, -48.152252, -90.212864, -148.724144,  -0.104597,  -0.451600,   0.545214,  -0.698414, 
33930,   7.189075,  -6.721937,  -0.081608,  17.927768, -14.530999, -48.698096,  -0.857201,   0.330940,  -0.756424, -682.500000, -349.500000, -429.000000, -48.606072, -90.207888, -148.496240,  -0.105961,  -0.454825,   0.542481,  -0.698231, 
33931,   7.219794,  -6.440354,   0.078746,  18.659244, -15.037725, -46.942980,  -0.853401,   0.303238,  -0.774727, -679.500000, -360.000000, -433.500000, -49.056360, -90.176216, -148.283216,  -0.107289,  -0.457983,   0.539651,  -0.698173, 
33932,   7.293996,  -6.548661,   0.006897,  19.833344, -15.694123, -44.876204,  -0.852313,   0.278705,  -0.787591, -678.000000, -369.000000, -436.500000, -49.482580, -90.157672, -148.047536,  -0.108381,  -0.461102,   0.536883,  -0.698087, 
33933,   7.343289,  -6.329729,   0.063217,  21.220150, -16.766821, -42.942136,  -0.857221,   0.287488,  -0.790326, -681.000000, -366.000000, -438.000000, -49.896548, -90.127720, -147.807120,  -0.109323,  -0.464183,   0.534059,  -0.698067, 
33934,   7.331452,  -6.328908,   0.106474,  22.554220, -17.743750, -40.859956,  -0.860306,   0.283415,  -0.795117, -682.500000, -367.500000, -439.500000, -50.287916, -90.094688, -147.551472,  -0.110020,  -0.467222,   0.531232,  -0.698100, 
33935,   7.403002,  -6.233697,   0.089105,  24.272838, -18.972688, -38.013128,  -0.865885,   0.251101,  -0.794298, -684.000000, -378.000000, -438.000000, -50.658028, -90.067264, -147.273376,  -0.110471,  -0.470244,   0.528415,  -0.698143, 
33936,   7.456379,  -6.189673,   0.132025,  26.248206, -20.272772, -35.629856,  -0.869825,   0.242956,  -0.776401, -685.500000, -379.500000, -432.000000, -51.007236, -90.023656, -146.986656,  -0.110672,  -0.473201,   0.525523,  -0.698274, 
33937,   7.460438,  -6.159421,   0.061846,  28.128792, -21.553302, -32.942684,  -0.873220,   0.242867,  -0.752812, -687.000000, -378.000000, -424.500000, -51.331224, -89.997880, -146.662400,  -0.110564,  -0.476191,   0.522681,  -0.698392, 
33938,   7.421999,  -6.064116,   0.056903,  30.033774, -22.912188, -29.908510,  -0.878845,   0.242779,  -0.756702, -690.000000, -378.000000, -426.000000, -51.620688, -89.965664, -146.320192,  -0.110109,  -0.479102,   0.519859,  -0.698599, 
33939,   7.465168,  -6.104377,   0.004673,  31.880936, -23.984660, -26.556582,  -0.888084,   0.233368,  -0.761422, -694.500000, -381.000000, -427.500000, -51.875476, -89.946008, -145.945856,  -0.109297,  -0.481968,   0.517100,  -0.698800, 
33940,   7.552101,  -5.929336,   0.066227,  32.879342, -24.986090, -23.613078,  -0.889877,   0.211190,  -0.764310, -694.500000, -388.500000, -427.500000, -52.111760, -89.934760, -145.546544,  -0.108253,  -0.484839,   0.514348,  -0.699002, 
33941,   7.557895,  -5.998767,  -0.107285,  34.780376, -25.864250, -20.509490,  -0.891311,   0.193448,  -0.766620, -694.500000, -394.500000, -427.500000, -52.318936, -89.929624, -145.125664,  -0.106926,  -0.487656,   0.511651,  -0.699223, 
33942,   7.772463,  -5.915309,  -0.012973,  34.773224, -26.263864, -18.628128,  -0.897653,   0.184489,  -0.771664, -697.500000, -397.500000, -429.000000, -52.507724, -89.940000, -144.680816,  -0.105407,  -0.490470,   0.509011,  -0.699414, 
33943,   7.825931,  -5.879501,  -0.000746,  36.244368, -26.753372, -18.011412,  -0.901627,   0.170730,  -0.773072, -699.000000, -402.000000, -429.000000, -52.701840, -89.930080, -144.244400,  -0.103883,  -0.493267,   0.506237,  -0.699669, 
33944,   7.787868,  -5.883351,  -0.071852,  36.607872, -27.240660, -17.459078,  -0.905738,   0.161771,  -0.750639, -700.500000, -403.500000, -421.500000, -52.878324, -89.936192, -143.784112,  -0.102176,  -0.496071,   0.503529,  -0.699900, 
33945,   7.779008,  -5.958398,  -0.053084,  37.539528, -27.522748, -16.531313,  -0.905705,   0.167384,  -0.731334, -700.500000, -400.500000, -415.500000, -53.044860, -89.934560, -143.323264,  -0.100371,  -0.498829,   0.500801,  -0.700174, 
33946,   7.843419,  -5.950028,  -0.245582,  37.751948, -27.607936, -15.695004,  -0.908603,   0.166932,  -0.731009, -702.000000, -400.500000, -415.500000, -53.196808, -89.980912, -142.816880,  -0.098407,  -0.501656,   0.498207,  -0.700275, 
33947,   7.679192,  -5.832369,  -0.239054,  37.865464, -27.329840, -15.184044,  -0.915646,   0.151909,  -0.727556, -705.000000, -405.000000, -414.000000, -53.349484, -90.019112, -142.317728,  -0.096458,  -0.504456,   0.495585,  -0.700413, 
33948,   7.794826,  -6.044530,  -0.482665,  36.677316, -26.619792, -14.288113,  -0.913277,   0.147110,  -0.723921, -703.500000, -406.500000, -412.500000, -53.466956, -90.096448, -141.792176,  -0.094306,  -0.507166,   0.493220,  -0.700420, 
33949,   7.875470,  -5.679980,   0.007430,  35.550408, -25.803392, -13.441838,  -0.915629,   0.154715,  -0.717904, -705.000000, -403.500000, -411.000000, -53.608512, -90.101800, -141.341872,  -0.092442,  -0.509693,   0.490619,  -0.700639, 
33950,   7.998143,  -6.091197,  -0.299411,  34.745856, -24.717816, -13.744720,  -0.923747,   0.126385,  -0.716184, -708.000000, -412.500000, -409.500000, -53.726180, -90.137536, -140.875920,  -0.090473,  -0.512157,   0.488236,  -0.700767, 
33951,   7.992874,  -5.563143,   0.158877,  33.177620, -23.760604, -15.146163,  -0.922658,   0.101852,  -0.729048, -706.500000, -421.500000, -412.500000, -53.886488, -90.115920, -140.476912,  -0.088917,  -0.514548,   0.485599,  -0.701047, 
33952,   8.174472,  -5.883121,  -0.084905,  32.785042, -22.941162, -16.867816,  -0.916349,   0.105199,  -0.743308, -703.500000, -421.500000, -417.000000, -54.059000, -90.114912, -140.069776,  -0.087478,  -0.516990,   0.482977,  -0.701225, 
33953,   8.140771,  -5.677595,   0.053081,  31.884276, -22.335818, -18.938284,  -0.922691,   0.096239,  -0.748353, -706.500000, -424.500000, -418.500000, -54.244308, -90.093752, -139.691536,  -0.086203,  -0.519374,   0.480300,  -0.701463, 
33954,   8.233792,  -5.689708,   0.008914,  31.849374, -21.984662, -21.621636,  -0.929000,   0.092893,  -0.734092, -709.500000, -424.500000, -414.000000, -54.467112, -90.087784, -139.305632,  -0.085180,  -0.521929,   0.477505,  -0.701623, 
33955,   8.139373,  -5.726695,  -0.233192,  31.823566, -21.607590, -24.452384,  -0.929000,   0.092893,  -0.734092, -709.500000, -424.500000, -414.000000, -54.710420, -90.112520, -138.898000,  -0.084288,  -0.524611,   0.474683,  -0.701643, 
33956,   8.114949,  -5.790215,  -0.342007,  30.343936, -20.475658, -26.441546,  -0.926974,   0.086465,  -0.721381, -708.000000, -426.000000, -409.500000, -54.960856, -90.172112, -138.471360,  -0.083485,  -0.527357,   0.471936,  -0.701523, 
33957,   8.105361,  -5.626591,  -0.285901,  28.575908, -18.978236, -28.409986,  -0.930931,   0.075513,  -0.713137, -709.500000, -429.000000, -406.500000, -55.235320, -90.222424, -138.073968,  -0.082968,  -0.530071,   0.469142,  -0.701407, 
33958,   8.035969,  -5.711674,  -0.141296,  26.618230, -17.395630, -29.456496,  -0.944299,   0.054337,  -0.705076, -715.500000, -435.000000, -403.500000, -55.507712, -90.242872, -137.724288,  -0.082595,  -0.532590,   0.466383,  -0.701387, 
33959,   8.092252,  -5.615222,  -0.015696,  24.196280, -15.755193, -29.836962,  -0.948410,   0.045377,  -0.682642, -717.000000, -436.500000, -396.000000, -55.783404, -90.228888, -137.429824,  -0.082419,  -0.534903,   0.463637,  -0.701457, 
33960,   8.165807,  -5.364146,   0.179777,  22.962738, -14.532283, -29.567732,  -0.948581,   0.044563,  -0.678105, -717.000000, -436.500000, -394.500000, -56.084964, -90.178920, -137.190112,  -0.082568,  -0.537119,   0.460802,  -0.701624, 
33961,   8.225268,  -5.397687,  -0.026360,  21.924644, -13.560153, -29.544492,  -0.947801,   0.024014,  -0.662589, -715.500000, -442.500000, -388.500000, -56.387720, -90.157480, -136.940896,  -0.082799,  -0.539344,   0.458078,  -0.701677, 
33962,   8.328353,  -5.315296,  -0.067437,  21.431128, -13.105503, -29.576660,  -0.950886,   0.019942,  -0.667380, -717.000000, -444.000000, -390.000000, -56.693592, -90.154648, -136.687360,  -0.083109,  -0.541568,   0.455420,  -0.701652, 
33963,   8.449495,  -5.160395,   0.050554,  21.431108, -13.097968, -31.204948,  -0.950015,   0.026821,  -0.680415, -717.000000, -442.500000, -394.500000, -57.026560, -90.139528, -136.447808,  -0.083614,  -0.543847,   0.452620,  -0.701654, 
33964,   8.450386,  -5.327677,  -0.031126,  21.936434, -12.982354, -33.119710,  -0.948739,   0.005909,  -0.688164, -715.500000, -450.000000, -396.000000, -57.364248, -90.129680, -136.200880,  -0.084126,  -0.546151,   0.449778,  -0.701629, 
33965,   8.493394,  -5.044649,   0.137518,  21.645394, -12.871124, -34.702944,  -0.953600,  -0.017533,  -0.686190, -717.000000, -457.500000, -394.500000, -57.729116, -90.097992, -135.973824,  -0.084821,  -0.548487,   0.446758,  -0.701658, 
33966,   8.453807,  -5.132087,  -0.033918,  22.158520, -12.730695, -36.010872,  -0.962465,  -0.019702,  -0.680680, -721.500000, -457.500000, -393.000000, -58.103328, -90.092368, -135.722560,  -0.085548,  -0.550910,   0.443716,  -0.701581, 
33967,   8.361672,  -4.994159,   0.108243,  22.441556, -12.855681, -35.970324,  -0.969149,  -0.030291,  -0.676650, -724.500000, -460.500000, -391.500000, -58.477904, -90.058712, -135.494032,  -0.086282,  -0.553260,   0.440604,  -0.701604, 
33968,   8.364908,  -5.299860,  -0.185777,  23.083132, -12.925839, -35.481976,  -0.963136,  -0.060799,  -0.677127, -720.000000, -471.000000, -390.000000, -58.818384, -90.074680, -135.215376,  -0.086741,  -0.555626,   0.437712,  -0.701508, 
33969,   8.145881,  -4.903978,   0.103023,  23.228262, -13.177740, -33.638864,  -0.956452,  -0.050211,  -0.681157, -717.000000, -468.000000, -391.500000, -59.153700, -90.057008, -134.964688,  -0.087176,  -0.557876,   0.434763,  -0.701523, 
33970,   8.227806,  -5.245255,  -0.015614,  24.546958, -13.429452, -30.644664,  -0.956639,  -0.053832,  -0.686272, -717.000000, -469.500000, -393.000000, -59.439696, -90.035600, -134.706256,  -0.087239,  -0.559939,   0.431968,  -0.701571, 
33971,   8.374610,  -4.784795,   0.198711,  24.973810, -13.999087, -27.986980,  -0.970178,  -0.075823,  -0.673674, -723.000000, -475.500000, -388.500000, -59.728056, -89.994984, -134.458864,  -0.087291,  -0.561978,   0.429093,  -0.701687, 
33972,   8.648878,  -4.763969,   0.194999,  26.796340, -14.700276, -27.631242,  -0.978856,  -0.074371,  -0.663049, -727.500000, -474.000000, -385.500000, -60.026632, -89.944768, -134.204120,  -0.087312,  -0.564081,   0.426067,  -0.701840, 
33973,   8.758216,  -4.669513,   0.078370,  28.229232, -15.299211, -28.724604,  -0.985898,  -0.089395,  -0.659596, -730.500000, -478.500000, -384.000000, -60.337868, -89.913400, -133.916656,  -0.087303,  -0.566333,   0.422928,  -0.701946, 
33974,   8.723266,  -4.614216,   0.218082,  29.407582, -15.846256, -29.641922,  -0.975178,  -0.094468,  -0.647857, -724.500000, -480.000000, -379.500000, -60.662972, -89.868152, -133.627576,  -0.087298,  -0.568633,   0.419612,  -0.702086, 
33975,   8.829111,  -4.579633,   0.174435,  30.543374, -16.189548, -30.161556,  -0.973013,  -0.105694,  -0.658989, -723.000000, -484.500000, -382.500000, -60.992240, -89.819912, -133.327712,  -0.087233,  -0.570958,   0.416181,  -0.702221, 
33976,   8.895477,  -4.388399,   0.435520,  31.463116, -16.659388, -31.174148,  -0.980056,  -0.120718,  -0.655535, -726.000000, -489.000000, -381.000000, -61.346472, -89.725656, -133.058544,  -0.087278,  -0.573287,   0.412487,  -0.702483, 
33977,   8.907833,  -4.389518,   0.304201,  33.082032, -16.919002, -32.513744,  -0.972233,  -0.126243,  -0.643472, -721.500000, -490.500000, -376.500000, -61.712940, -89.635648, -132.772296,  -0.087312,  -0.575711,   0.408668,  -0.702739, 
33978,   8.786137,  -4.378718,   0.234646,  33.737708, -17.138176, -33.333328,  -0.969865,  -0.131042,  -0.639837, -720.000000, -492.000000, -375.000000, -62.071068, -89.571248, -132.452792,  -0.087216,  -0.578183,   0.404864,  -0.702929, 
33979,   8.710158,  -4.439873,   0.132201,  35.389376, -17.600058, -33.227608,  -0.973309,  -0.139549,  -0.645205, -721.500000, -495.000000, -376.500000, -62.424148, -89.508648, -132.121504,  -0.087023,  -0.580653,   0.401021,  -0.703116, 
33980,   8.547373,  -4.481043,   0.169648,  36.276340, -18.070260, -31.798906,  -0.980164,  -0.150952,  -0.636637, -724.500000, -498.000000, -373.500000, -62.743540, -89.467056, -131.758376,  -0.086532,  -0.583072,   0.397297,  -0.703271, 
33981,   8.678873,  -4.348488,   0.207047,  37.761572, -18.702150, -29.631574,  -0.981614,  -0.171501,  -0.648600, -724.500000, -505.500000, -376.500000, -63.049788, -89.400936, -131.404344,  -0.085891,  -0.585421,   0.393529,  -0.703522, 
33982,   8.892800,  -4.298963,   0.331102,  39.429468, -19.193776, -29.147136,  -0.988519,  -0.191323,  -0.668989, -727.500000, -513.000000, -382.500000, -63.358752, -89.330400, -131.037168,  -0.085162,  -0.587813,   0.389643,  -0.703799, 
33983,   9.044082,  -4.145952,   0.376727,  41.245664, -19.920324, -29.699926,  -0.986321,  -0.196936,  -0.660815, -726.000000, -514.500000, -379.500000, -63.684552, -89.237312, -130.672168,  -0.084428,  -0.590240,   0.385521,  -0.704118, 
33984,   8.971739,  -4.183276,   0.232621,  43.944272, -20.592202, -30.958566,  -0.984295,  -0.203364,  -0.648105, -724.500000, -516.000000, -375.000000, -64.019600, -89.158968, -130.270856,  -0.083599,  -0.592781,   0.381236,  -0.704394, 
33985,   8.969530,  -4.012059,   0.284984,  45.250344, -21.282992, -31.513442,  -0.991679,  -0.220017,  -0.635576, -727.500000, -520.500000, -370.500000, -64.365044, -89.105288, -129.827224,  -0.082701,  -0.595466,   0.376822,  -0.704621, 
33986,   8.931776,  -4.162142,   0.077124,  47.454244, -21.758742, -31.358372,  -0.992755,  -0.233323,  -0.637309, -727.500000, -525.000000, -370.500000, -64.698752, -89.067944, -129.349992,  -0.081608,  -0.598193,   0.372383,  -0.704838, 
33987,   8.869052,  -3.971732,   0.285836,  48.203320, -22.045322, -30.813692,  -0.993813,  -0.243823,  -0.629389, -727.500000, -528.000000, -367.500000, -65.023048, -89.011672, -128.876176,  -0.080374,  -0.600827,   0.367855,  -0.705077, 
33988,   8.875567,  -3.996762,   0.243835,  49.610396, -22.262096, -29.655186,  -0.997225,  -0.246719,  -0.615453, -729.000000, -528.000000, -363.000000, -65.337372, -88.936952, -128.406832,  -0.079009,  -0.603413,   0.363281,  -0.705393, 
33989,   8.944727,  -3.935112,   0.200917,  50.532396, -22.372458, -28.782500,  -0.994856,  -0.251517,  -0.611817, -727.500000, -529.500000, -361.500000, -65.638312, -88.849072, -127.939992,  -0.077506,  -0.605939,   0.358700,  -0.705766, 
33990,   8.989675,  -3.848278,   0.227081,  51.143584, -22.363576, -27.925622,  -0.993751,  -0.273243,  -0.615028, -726.000000, -537.000000, -361.500000, -65.939180, -88.779128, -127.449448,  -0.075947,  -0.608483,   0.354078,  -0.706074, 
33991,   9.067186,  -3.876554,   0.010459,  52.044540, -22.436818, -27.925702,  -1.004220,  -0.293968,  -0.607291, -730.500000, -543.000000, -358.500000, -66.235320, -88.745048, -126.918904,  -0.074302,  -0.611085,   0.349475,  -0.706302, 
33992,   9.033296,  -3.817339,   0.019099,  52.064572, -22.198162, -28.217142,  -0.996569,  -0.300307,  -0.590691, -726.000000, -544.500000, -352.500000, -66.530700, -88.764344, -126.334976,  -0.072606,  -0.613773,   0.344897,  -0.706390, 
33993,   9.013021,  -3.939858,  -0.148741,  52.591192, -21.868848, -27.944398,  -1.000697,  -0.312073,  -0.577909, -727.500000, -547.500000, -348.000000, -66.817612, -88.774352, -125.759200,  -0.070859,  -0.616376,   0.340329,  -0.706500, 
33994,   9.102552,  -3.667707,   0.118275,  50.853344, -21.285528, -27.726902,  -1.010450,  -0.323928,  -0.569017, -732.000000, -550.500000, -345.000000, -67.110880, -88.797696, -125.178848,  -0.069197,  -0.618990,   0.335774,  -0.706588, 
33995,   9.212857,  -3.758689,  -0.133554,  50.782992, -20.674214, -28.247694,  -1.002970,  -0.331082,  -0.547879, -727.500000, -552.000000, -337.500000, -67.406256, -88.809824, -124.617968,  -0.067607,  -0.621508,   0.331217,  -0.706673, 
33996,   9.196687,  -3.638587,   0.142603,  49.845980, -20.017094, -28.899066,  -0.997703,  -0.335428,  -0.544567, -724.500000, -553.500000, -336.000000, -67.708112, -88.787784, -124.097976,  -0.066123,  -0.623919,   0.326618,  -0.706829, 
33997,   9.086000,  -3.845360,  -0.280329,  49.500136, -19.467172, -29.371768,  -1.003345,  -0.338323,  -0.558109, -727.500000, -555.000000, -340.500000, -67.997968, -88.866272, -123.490120,  -0.064573,  -0.626447,   0.322206,  -0.706750, 
33998,   9.126372,  -3.717733,  -0.042695,  47.482712, -18.592384, -29.691756,  -1.008565,  -0.366202,  -0.556713, -729.000000, -564.000000, -339.000000, -68.285624, -88.928696, -122.912536,  -0.063110,  -0.628856,   0.317852,  -0.706700, 
33999,   9.099621,  -3.756194,  -0.274856,  46.633156, -17.729514, -30.077416,  -1.012351,  -0.376339,  -0.553006, -730.500000, -567.000000, -337.500000, -68.579168, -89.008280, -122.334184,  -0.061778,  -0.631261,   0.313558,  -0.706621, 
34000,   9.176023,  -3.628428,  -0.190396,  43.665308, -16.595213, -30.525106,  -1.012676,  -0.375162,  -0.534279, -730.500000, -565.500000, -331.500000, -68.868424, -89.092496, -121.773472,  -0.060555,  -0.633551,   0.309387,  -0.706505, 
34001,   9.137895,  -3.529118,  -0.125104,  41.848848, -15.355727, -30.758074,  -1.008485,  -0.392815,  -0.532699, -727.500000, -571.500000, -330.000000, -69.174632, -89.114544, -121.297360,  -0.059616,  -0.635663,   0.305191,  -0.706504, 
34002,   9.091069,  -3.623050,  -0.354501,  38.471116, -13.915901, -30.787110,  -1.007192,  -0.410920,  -0.530796, -726.000000, -577.500000, -328.500000, -69.461120, -89.227936, -120.761520,  -0.058698,  -0.637805,   0.301323,  -0.706309, 
34003,   9.038630,  -3.367987,  -0.121603,  36.118148, -12.891733, -29.872320,  -1.011678,  -0.427122,  -0.518592, -727.500000, -582.000000, -324.000000, -69.758064, -89.262672, -120.335288,  -0.058083,  -0.639694,   0.297505,  -0.706255, 
34004,   9.144389,  -3.618556,  -0.345248,  33.801716, -11.654351, -28.996862,  -1.016432,  -0.420331,  -0.535516, -730.500000, -580.500000, -330.000000, -70.030128, -89.366208, -119.865920,  -0.057438,  -0.641583,   0.294003,  -0.706077, 
34005,   9.117773,  -3.284309,  -0.168169,  31.087890, -10.665399, -28.173702,  -1.014064,  -0.425130,  -0.531880, -729.000000, -582.000000, -328.500000, -70.305296, -89.442880, -119.451480,  -0.057004,  -0.643335,   0.290617,  -0.705950, 
34006,   9.158182,  -3.399598,  -0.225783,  29.814274,  -9.864738, -26.989906,  -1.018721,  -0.442146,  -0.515138, -730.500000, -586.500000, -322.500000, -70.575152, -89.509472, -119.067256,  -0.056666,  -0.644952,   0.287345,  -0.705809, 
34007,   9.299171,  -3.397154,  -0.258369,  27.134202,  -9.020683, -26.656316,  -1.022320,  -0.448662,  -0.506317, -732.000000, -588.000000, -319.500000, -70.821752, -89.635648, -118.646296,  -0.056299,  -0.646564,   0.284360,  -0.705567, 
34008,   9.422768,  -3.151460,  -0.137477,  25.425964,  -8.210944, -27.383094,  -1.010728,  -0.446856,  -0.507613, -726.000000, -588.000000, -319.500000, -71.100952, -89.694888, -118.313840,  -0.056302,  -0.648060,   0.281273,  -0.705444, 
34009,   9.549820,  -3.043225,  -0.146489,  23.436424,  -7.416110, -29.418676,  -1.011632,  -0.459348,  -0.513883, -726.000000, -592.500000, -321.000000, -71.402080, -89.756448, -117.998080,  -0.056557,  -0.649551,   0.278163,  -0.705300, 
34010,   9.618895,  -2.980937,  -0.108752,  22.049470,  -6.590584, -32.143310,  -1.015760,  -0.471114,  -0.501101, -727.500000, -595.500000, -316.500000, -71.734816, -89.803600, -117.715000,  -0.057128,  -0.651025,   0.274960,  -0.705158, 
34011,   9.596796,  -2.950154,  -0.089420,  20.882896,  -6.040810, -34.765980,  -1.016974,  -0.479622,  -0.478992, -727.500000, -597.000000, -309.000000, -72.089944, -89.845472, -117.450064,  -0.057917,  -0.652479,   0.271688,  -0.704996, 
34012,   9.455675,  -3.018693,  -0.105273,  20.083646,  -5.513461, -36.384164,  -1.021135,  -0.497001,  -0.485515, -729.000000, -603.000000, -310.500000, -72.449928, -89.871184, -117.211520,  -0.058809,  -0.653882,   0.268434,  -0.704867, 
34013,   9.327919,  -2.863481,  -0.034709,  19.417162,  -5.265476, -36.900576,  -1.026322,  -0.519267,  -0.464814, -730.500000, -609.000000, -303.000000, -72.819256, -89.889488, -116.988088,  -0.059810,  -0.655265,   0.265164,  -0.704753, 
34014,   9.169318,  -3.082350,  -0.204828,  19.692174,  -5.074311, -35.919420,  -1.016585,  -0.510219,  -0.483358, -726.000000, -607.500000, -309.000000, -73.164064, -89.923248, -116.752456,  -0.060674,  -0.656600,   0.262056,  -0.704631, 
34015,   8.990635,  -3.096072,  -0.062759,  18.720252,  -4.810547, -33.471206,  -1.017677,  -0.526332,  -0.494743, -726.000000, -613.500000, -312.000000, -73.460624, -89.967256, -116.510712,  -0.061262,  -0.657792,   0.259235,  -0.704487, 
34016,   8.975866,  -2.986249,   0.018057,  19.331380,  -4.945764, -30.046624,  -1.017631,  -0.558558,  -0.490035, -724.500000, -624.000000, -309.000000, -73.733592, -89.911208, -116.367552,  -0.061737,  -0.658752,   0.256497,  -0.704534, 
34017,   8.981746,  -2.861906,   0.190514,  19.613574,  -5.182132, -25.670132,  -1.000772,  -0.561099,  -0.488019, -715.500000, -625.500000, -307.500000, -73.970840, -89.817952, -116.255328,  -0.061967,  -0.659580,   0.253912,  -0.704666, 
34018,   9.215386,  -2.750602,   0.204725,  20.816164,  -5.397949, -22.083808,  -0.997295,  -0.546978,  -0.463345, -714.000000, -619.500000, -300.000000, -74.181864, -89.686104, -116.172344,  -0.061994,  -0.660304,   0.251408,  -0.704881, 
34019,   9.307583,  -2.513726,   0.369049,  22.087990,  -5.835580, -20.102006,  -1.008871,  -0.545978,  -0.452397, -720.000000, -618.000000, -297.000000, -74.388336, -89.510392, -116.119872,  -0.061925,  -0.660975,   0.248835,  -0.705175, 
34020,   9.382182,  -2.410794,   0.394593,  25.040024,  -6.422800, -18.398316,  -1.017410,  -0.549324,  -0.465615, -724.500000, -619.500000, -301.500000, -74.594904, -89.285576, -116.093648,  -0.061733,  -0.661614,   0.246110,  -0.705552, 
34021,   9.353664,  -2.537860,   0.218294,  27.627198,  -6.997696, -16.963382,  -1.018657,  -0.563445,  -0.462809, -724.500000, -624.000000, -300.000000, -74.768928, -89.145112, -115.955200,  -0.061135,  -0.662367,   0.243439,  -0.705815, 
34022,   9.330088,  -2.472157,   0.175409,  30.061942,  -7.583130, -15.725649,  -1.016801,  -0.570687,  -0.445561, -723.000000, -625.500000, -294.000000, -74.936096, -89.017592, -115.782048,  -0.060355,  -0.663169,   0.240687,  -0.706071, 
34023,   9.384714,  -2.674241,   0.083285,  31.803376,  -8.017197, -14.385525,  -1.009354,  -0.583453,  -0.443728, -718.500000, -630.000000, -292.500000, -75.068368, -88.977944, -115.499344,  -0.059194,  -0.664075,   0.238042,  -0.706224, 
34024,   9.388378,  -2.484875,   0.108687,  33.201324,  -8.478978, -13.208268,  -1.015150,  -0.584356,  -0.443080, -721.500000, -630.000000, -292.500000, -75.200848, -88.906880, -115.233328,  -0.057954,  -0.664953,   0.235296,  -0.706428, 
34025,   9.482617,  -2.567566,   0.022710,  34.430108,  -8.681345, -12.601691,  -1.014962,  -0.580735,  -0.437965, -721.500000, -628.500000, -291.000000, -75.319280, -88.881768, -114.906520,  -0.056518,  -0.665882,   0.232554,  -0.706563, 
34026,   9.427457,  -2.489669,   0.059139,  35.471128,  -8.819632, -12.307416,  -1.011893,  -0.579470,  -0.442827, -720.000000, -628.500000, -292.500000, -75.437232, -88.841736, -114.584888,  -0.055024,  -0.666802,   0.229752,  -0.706729, 
34027,   9.464317,  -2.496617,   0.042687,  35.929176,  -8.930094, -11.858549,  -1.008979,  -0.576211,  -0.433498, -718.500000, -627.000000, -289.500000, -75.549248, -88.829456, -114.227520,  -0.053435,  -0.667763,   0.226946,  -0.706862, 
34028,   9.527763,  -2.461182,   0.057283,  36.788884,  -8.985236, -11.622815,  -1.003541,  -0.579744,  -0.434723, -715.500000, -628.500000, -289.500000, -75.664664, -88.799000, -113.882200,  -0.051835,  -0.668709,   0.224077,  -0.707025, 
34029,   9.615292,  -2.457487,  -0.037012,  36.874216,  -8.942840, -12.187779,  -1.004787,  -0.593865,  -0.431918, -715.500000, -633.000000, -288.000000, -75.779512, -88.820848, -113.480776,  -0.050189,  -0.669709,   0.221195,  -0.707089, 
34030,   9.700356,  -2.446980,  -0.046863,  37.313260,  -8.774747, -13.531814,  -1.003682,  -0.615591,  -0.435130, -714.000000, -640.500000, -288.000000, -75.906352, -88.819712, -113.101344,  -0.048618,  -0.670699,   0.218229,  -0.707187, 
34031,   9.597135,  -2.496996,  -0.042486,  37.019432,  -8.673925, -15.218731,  -1.007297,  -0.624913,  -0.435961, -715.500000, -643.500000, -288.000000, -76.039384, -88.845400, -112.694624,  -0.047075,  -0.671729,   0.215229,  -0.707240, 
34032,   9.490743,  -2.561025,  -0.121946,  37.471380,  -8.661559, -16.080921,  -1.013435,  -0.627445,  -0.426238, -718.500000, -643.500000, -285.000000, -76.177608, -88.894240, -112.264536,  -0.045554,  -0.672780,   0.212196,  -0.707245, 
34033,   9.443961,  -2.623633,  -0.248501,  37.322660,  -8.554570, -16.100967,  -1.014102,  -0.627897,  -0.398436, -718.500000, -642.000000, -276.000000, -76.304264, -89.015392, -111.762016,  -0.043942,  -0.673894,   0.209244,  -0.707145, 
34034,   9.439922,  -2.660267,  -0.312294,  37.039324,  -8.335850, -15.979328,  -1.005971,  -0.637406,  -0.414753, -714.000000, -646.500000, -280.500000, -76.422336, -89.155024, -111.244408,  -0.042295,  -0.675010,   0.206366,  -0.707035, 
34035,   9.554784,  -2.687192,  -0.313226,  36.219420,  -8.116743, -16.218483,  -1.012688,  -0.653607,  -0.430027, -717.000000, -652.500000, -285.000000, -76.539112, -89.334552, -110.694520,  -0.040678,  -0.676140,   0.203542,  -0.706855, 
34036,   9.594399,  -2.488757,  -0.229714,  34.924832,  -7.734819, -16.920258,  -1.015569,  -0.651252,  -0.420051, -718.500000, -651.000000, -282.000000, -76.674032, -89.512272, -110.154552,  -0.039227,  -0.677277,   0.200653,  -0.706674, 
34037,   9.702093,  -2.333801,  -0.005592,  34.536100,  -7.561118, -17.924228,  -1.003619,  -0.645010,  -0.420769, -712.500000, -649.500000, -282.000000, -76.845488, -89.533256, -109.779136,  -0.038091,  -0.678238,   0.197551,  -0.706708, 
34038,   9.640734,  -2.662137,  -0.309749,  33.744852,  -7.121606, -19.707304,  -1.006892,  -0.652704,  -0.430675, -714.000000, -652.500000, -285.000000, -76.992128, -89.649192, -109.314552,  -0.036815,  -0.679250,   0.194646,  -0.706605, 
34039,   9.714895,  -2.038686,   0.155818,  31.443186,  -6.575564, -21.439374,  -1.005566,  -0.665196,  -0.409466, -712.500000, -655.500000, -277.500000, -77.201520, -89.620416, -109.011800,  -0.036067,  -0.680132,   0.191431,  -0.706677, 
34040,   9.721185,  -2.102538,  -0.017620,  32.123818,  -6.349557, -22.558276,  -1.004395,  -0.675696,  -0.374068, -711.000000, -657.000000, -265.500000, -77.435456, -89.566216, -108.738744,  -0.035501,  -0.681001,   0.188087,  -0.706771, 
34041,   9.552997,  -2.485015,  -0.350873,  31.230160,  -5.928301, -23.701686,  -1.010891,  -0.682663,  -0.364923, -714.000000, -658.500000, -262.500000, -77.634408, -89.708840, -108.274632,  -0.034712,  -0.682052,   0.185026,  -0.706621, 
34042,   9.576219,  -2.417730,  -0.251834,  29.515582,  -5.526664, -23.632214,  -1.012171,  -0.702397,  -0.381423, -714.000000, -666.000000, -267.000000, -77.827920, -89.876072, -107.801120,  -0.033980,  -0.683065,   0.182081,  -0.706423, 
34043,   9.497745,  -2.476333,  -0.450426,  28.919134,  -5.111986, -23.408042,  -1.002589,  -0.691357,  -0.385777, -709.500000, -663.000000, -268.500000, -78.022064, -90.104240, -107.280160,  -0.033327,  -0.684126,   0.179222,  -0.706159, 
34044,   9.599410,  -2.422944,  -0.323009,  26.713610,  -4.726940, -23.130562,  -1.004941,  -0.683753,  -0.379761, -711.000000, -660.000000, -267.000000, -78.197304, -90.307696, -106.796304,  -0.032642,  -0.685090,   0.176538,  -0.705939, 
34045,   9.668232,  -2.100120,  -0.072374,  25.705904,  -4.447717, -23.684022,  -1.011625,  -0.694341,  -0.375730, -714.000000, -663.000000, -265.500000, -78.411528, -90.355056, -106.483968,  -0.032323,  -0.685867,   0.173678,  -0.705896, 
34046,   9.685225,  -2.244815,  -0.154379,  25.228076,  -4.272699, -24.469444,  -0.997835,  -0.698148,  -0.368853, -706.500000, -664.500000, -262.500000, -78.622448, -90.402232, -106.177280,  -0.032017,  -0.686626,   0.170869,  -0.705862, 
34047,   9.668823,  -1.960127,  -0.042176,  23.959780,  -4.121975, -25.142160,  -0.991868,  -0.696431,  -0.374038, -703.500000, -664.500000, -264.000000, -78.852936, -90.434768, -105.894856,  -0.031895,  -0.687367,   0.167995,  -0.705841, 
34048,   9.721315,  -1.898278,  -0.049415,  23.970812,  -4.001211, -25.879644,  -0.996884,  -0.717882,  -0.357874, -705.000000, -670.500000, -258.000000, -79.104728, -90.433352, -105.651760,  -0.031943,  -0.688074,   0.165015,  -0.705851, 
34049,   9.661715,  -1.987777,  -0.093002,  23.288468,  -3.628905, -26.446240,  -0.995233,  -0.731551,  -0.355393, -703.500000, -675.000000, -256.500000, -79.353640, -90.494648, -105.350152,  -0.031989,  -0.688828,   0.162084,  -0.705788, 
34050,   9.538739,  -2.236493,  -0.496580,  22.220212,  -3.073953, -26.256684,  -1.004285,  -0.737342,  -0.354999, -708.000000, -676.500000, -256.500000, -79.570216, -90.770240, -104.845376,  -0.031875,  -0.689739,   0.159440,  -0.705486, 
34051,   9.569467,  -1.583898,  -0.037349,  18.821496,  -2.750873, -25.487710,  -1.003927,  -0.732906,  -0.354421, -708.000000, -675.000000, -256.500000, -79.827504, -90.879472, -104.531208,  -0.032188,  -0.690479,   0.156671,  -0.705379, 
34052,   9.513316,  -1.723338,  -0.243830,  18.530212,  -2.486469, -24.354842,  -0.993068,  -0.742777,  -0.366525, -702.000000, -679.500000, -259.500000, -80.081552, -90.980472, -104.241960,  -0.032586,  -0.691175,   0.154019,  -0.705291, 
34053,   9.567234,  -1.995052,  -0.423613,  15.948611,  -1.912715, -22.902290,  -1.000640,  -0.763051,  -0.359112, -705.000000, -685.500000, -256.500000, -80.276336, -91.287424, -103.761536,  -0.032686,  -0.691967,   0.151833,  -0.704989, 
34054,   9.549312,  -1.596360,   0.034492,  14.316756,  -1.770558, -21.925606,  -0.998239,  -0.762237,  -0.336170, -703.500000, -684.000000, -249.000000, -80.492112, -91.300336, -103.597856,  -0.033090,  -0.692425,   0.149618,  -0.704978, 
34055,   9.586455,  -1.701471,  -0.086876,  14.197344,  -1.506938, -20.869180,  -0.987209,  -0.771294,  -0.352812, -697.500000, -688.500000, -253.500000, -80.694056, -91.333040, -103.419720,  -0.033440,  -0.692876,   0.147520,  -0.704954, 
34056,   9.469049,  -1.452480,   0.057598,  13.618752,  -1.504754, -18.952166,  -0.990124,  -0.774552,  -0.362140, -699.000000, -690.000000, -256.500000, -80.893344, -91.271544, -103.340088,  -0.033809,  -0.693220,   0.145453,  -0.705022, 
34057,   9.562838,  -1.464191,   0.112584,  14.395894,  -1.557488, -16.725290,  -0.993005,  -0.772197,  -0.352164, -700.500000, -688.500000, -253.500000, -81.076744, -91.142904, -103.325688,  -0.034076,  -0.693482,   0.143463,  -0.705155, 
34058,   9.801293,  -1.576959,  -0.143026,  14.653717,  -1.494552, -16.477650,  -0.991913,  -0.756084,  -0.340779, -700.500000, -682.500000, -250.500000, -81.234624, -91.170424, -103.149888,  -0.034136,  -0.693873,   0.141612,  -0.705150, 
34059,   9.807413,  -1.446955,  -0.155285,  13.825066,  -1.276742, -17.753538,  -0.999143,  -0.774729,  -0.342441, -703.500000, -688.500000, -250.500000, -81.406664, -91.291320, -102.886032,  -0.034308,  -0.694362,   0.139718,  -0.705064, 
34060,   9.665049,  -1.397325,  -0.158083,  13.122620,  -1.124545, -17.880412,  -0.994627,  -0.793560,  -0.359588, -700.500000, -696.000000, -255.000000, -81.588416, -91.384960, -102.656192,  -0.034585,  -0.694821,   0.137801,  -0.705006, 
34061,   9.734689,  -1.321491,  -0.096725,  11.887147,  -0.978365, -17.682556,  -0.982676,  -0.787319,  -0.360307, -694.500000, -694.500000, -255.000000, -81.773136, -91.470000, -102.445392,  -0.034945,  -0.695225,   0.135921,  -0.704926, 
34062,   9.788219,  -1.254662,   0.075456,  11.535280,  -0.978194, -17.808272,  -0.983189,  -0.789762,  -0.346695, -694.500000, -694.500000, -250.500000, -81.960856, -91.383656, -102.411856,  -0.035375,  -0.695480,   0.134046,  -0.705005, 
34063,   9.739575,  -1.156963,   0.076931,  11.723825,  -1.032483, -17.902890,  -0.991166,  -0.782246,  -0.344568, -699.000000, -691.500000, -250.500000, -82.159552, -91.290696, -102.386224,  -0.035880,  -0.695735,   0.132110,  -0.705081, 
34064,   9.693939,  -1.204241,   0.178067,  12.728990,  -0.981229, -17.864798,  -0.983719,  -0.795012,  -0.342735, -694.500000, -696.000000, -249.000000, -82.350880, -91.089880, -102.461096,  -0.036303,  -0.695903,   0.130165,  -0.705248, 
34065,   9.779243,  -1.200373,   0.136213,  13.981618,  -1.072387, -17.730778,  -0.979324,  -0.806238,  -0.326388, -691.500000, -699.000000, -243.000000, -82.535896, -90.882832, -102.530808,  -0.036617,  -0.696080,   0.128190,  -0.705421, 
34066,   9.760759,  -1.077359,   0.123176,  14.702311,  -1.163767, -17.881114,  -0.982205,  -0.803883,  -0.316411, -693.000000, -697.500000, -240.000000, -82.728488, -90.686112, -102.581472,  -0.036922,  -0.696289,   0.126117,  -0.705581, 
34067,   9.764329,  -1.064413,   0.144457,  15.860360,  -1.281844, -17.835642,  -0.989590,  -0.820536,  -0.303883, -696.000000, -702.000000, -235.500000, -82.923496, -90.481032, -102.630920,  -0.037184,  -0.696511,   0.123970,  -0.705747, 
34068,   9.754166,  -1.106225,   0.089467,  16.656946,  -1.433279, -17.516252,  -0.986162,  -0.814834,  -0.308167, -694.500000, -700.500000, -237.000000, -83.108976, -90.328120, -102.617704,  -0.037317,  -0.696764,   0.121820,  -0.705862, 
34069,   9.689145,  -1.062200,   0.071898,  16.834138,  -1.644005, -16.891432,  -0.974587,  -0.815835,  -0.319116, -688.500000, -702.000000, -240.000000, -83.287624, -90.217800, -102.557920,  -0.037378,  -0.697042,   0.119689,  -0.705940, 
34070,   9.661554,  -1.021159,  -0.010902,  16.832892,  -1.621828, -16.029459,  -0.981783,  -0.828867,  -0.301473, -691.500000, -705.000000, -234.000000, -83.464096, -90.223512, -102.382072,  -0.037417,  -0.697393,   0.117579,  -0.705931, 
34071,   9.573357,  -1.131697,  -0.118454,  16.582464,  -1.497778, -14.489594,  -0.986162,  -0.814834,  -0.308167, -694.500000, -700.500000, -237.000000, -83.616112, -90.320856, -102.115984,  -0.037307,  -0.697775,   0.115632,  -0.705866, 
34072,   9.488446,  -1.217950,  -0.263736,  15.456183,  -1.261816, -12.330777,  -0.971860,  -0.816198,  -0.314902, -687.000000, -702.000000, -238.500000, -83.732184, -90.607112, -101.668688,  -0.037012,  -0.698239,   0.113963,  -0.705690, 
34073,   9.444921,  -1.314635,  -0.291864,  13.770564,  -1.020970,  -9.464392,  -0.974228,  -0.811399,  -0.318538, -688.500000, -700.500000, -240.000000, -83.809168, -90.961392, -101.168560,  -0.036568,  -0.698699,   0.112628,  -0.705492, 
34074,   9.514381,  -1.208805,  -0.153766,  11.588192,  -0.673003,  -6.749527,  -0.981100,  -0.825609,  -0.319623, -691.500000, -705.000000, -240.000000, -83.862160, -91.208712, -100.794160,  -0.036098,  -0.699029,   0.111543,  -0.705355, 
34075,   9.585914,  -0.928668,  -0.221895,  10.048682,  -0.142133,  -4.511696,  -0.983234,  -0.849416,  -0.313435, -691.500000, -712.500000, -237.000000, -83.923792, -91.437400, -100.457392,  -0.035801,  -0.699339,   0.110520,  -0.705233, 
34076,   9.785950,  -0.766030,  -0.198653,   8.207976,   0.260127,  -3.210682,  -0.991570,  -0.846335,  -0.311886, -696.000000, -711.000000, -237.000000, -83.982856, -91.623672, -100.179368,  -0.035592,  -0.699594,   0.109608,  -0.705130, 
34077,   9.451006,   0.167024,   0.371682,   4.778104,   0.028295,  -1.371783,  -0.984681,  -0.829318,  -0.301149, -693.000000, -705.000000, -234.000000, -84.039312, -91.626576, -100.110296,  -0.035534,  -0.699705,   0.108860,  -0.705144, 
34078,   9.538682,  -1.029260,  -0.153463,   8.468107,  -0.694456,  -0.135231,  -0.979244,  -0.832851,  -0.302374, -690.000000, -706.500000, -234.000000, -84.036688, -91.706536, -99.963816,  -0.035105,  -0.699819,   0.108474,  -0.705115, 
34079,  10.032955,  -0.690754,  -0.329089,   4.703773,  -0.304537,   0.006219,  -0.979244,  -0.832851,  -0.302374, -690.000000, -706.500000, -234.000000, -84.052720, -92.151440, -99.454288,  -0.034786,  -0.700166,   0.107999,  -0.704839, 
34080,  10.177901,   0.175985,   0.500123,   2.282763,  -0.020413,   0.165424,  -0.982159,  -0.836109,  -0.311703, -691.500000, -708.000000, -237.000000, -84.050376, -92.147856, -99.426144,  -0.034577,  -0.700192,   0.107819,  -0.704850, 
34081,   9.594453,   0.097775,   0.012310,  -0.692508,  -0.097434,   0.971597,  -0.980540,  -0.855391,  -0.328526, -690.000000, -715.500000, -241.500000, -84.047808, -92.152552, -99.410960,  -0.034496,  -0.700203,   0.107771,  -0.704850, 
34082,   9.655478,  -0.441380,   0.281579,  -0.362512,  -0.509044,   2.590535,  -0.978188,  -0.862996,  -0.334543, -688.500000, -718.500000, -243.000000, -84.063280, -91.994264, -99.571304,  -0.034611,  -0.700114,   0.107683,  -0.704953, 
34083,   9.880825,  -0.244014,   0.146933,   0.039350,  -1.263316,   3.720679,  -0.980369,  -0.854577,  -0.333064, -690.000000, -715.500000, -243.000000, -84.028576, -92.093064, -99.474784,  -0.034407,  -0.700147,   0.107913,  -0.704889, 
34084,   9.840960,  -2.019394,  -0.006113,   5.426275,  -0.764904,   5.626168,  -0.974027,  -0.845618,  -0.328019, -687.000000, -712.500000, -241.500000, -83.977648, -92.202384, -99.353016,  -0.034011,  -0.700191,   0.108152,  -0.704824, 
34085,   9.303930,  -4.393738,  -1.959080,   5.573702,   0.624915,  -3.417917,  -0.980491,  -0.846972,  -0.299569, -690.000000, -711.000000, -232.500000, -83.958240, -92.167824, -99.322544,  -0.033492,  -0.700215,   0.107872,  -0.704866, 
34086,  10.159649,  -0.135814,   0.742332, -11.092969,   0.973539,  -1.104353,  -0.983560,  -0.848238,  -0.294708, -691.500000, -711.000000, -231.000000, -83.980872, -92.137072, -99.387472,  -0.033844,  -0.700180,   0.107941,  -0.704875, 
34087,  10.112899,  -0.960842,  -0.169726,   2.666459,   0.277396,  -1.545339,  -0.977438,  -0.848513,  -0.314083, -688.500000, -712.500000, -237.000000, -83.991680, -92.209920, -99.363736,  -0.034210,  -0.700189,   0.108178,  -0.704813, 
34088,  10.186473,   0.371452,   0.552844,  -1.388847,  -0.749598,   3.802070,  -0.971080,  -0.836747,  -0.299386, -685.500000, -708.000000, -232.500000, -83.984712, -92.221896, -99.351920,  -0.034167,  -0.700192,   0.108222,  -0.704805, 
34089,   9.801960,  -1.461492,   0.540533,   0.086034,  -0.556348,   2.820913,  -0.970192,  -0.827061,  -0.302769, -685.500000, -705.000000, -234.000000, -83.971376, -91.651048, -99.914432,  -0.034058,  -0.699835,   0.108230,  -0.705193, 
34090,  10.069245,  -2.275557,  -0.983079,   2.983069,   0.165015,  -1.538046,  -0.981817,  -0.834480,  -0.320778, -691.500000, -708.000000, -240.000000, -83.951008, -91.662736, -99.881592,  -0.033802,  -0.699847,   0.108226,  -0.705194, 
34091,   9.769812,  -1.271770,  -0.287905,  -3.084928,   0.800002,  -0.895441,  -0.977251,  -0.844891,  -0.308968, -688.500000, -711.000000, -235.500000, -83.955776, -91.809608, -99.726136,  -0.033772,  -0.699949,   0.108151,  -0.705095, 
34092,   9.995619,   0.865380,   1.336087,  -1.784547,   0.208830,  -0.327862,  -0.970892,  -0.833125,  -0.294271, -685.500000, -706.500000, -231.000000, -83.959768, -91.815776, -99.753688,  -0.034004,  -0.699925,   0.108332,  -0.705082, 
34093,   9.253574,  -0.576202,  -0.065705,  -0.867868,  -0.065054,   1.039864,  -0.976142,  -0.825972,  -0.287930, -688.500000, -703.500000, -229.500000, -83.993544, -92.073152, -99.495464,  -0.034196,  -0.700109,   0.108130,  -0.704904, 
34094,   9.733378,  -1.574408,  -0.095727,   2.419123,  -0.100035,   0.313462,  -0.984836,  -0.827326,  -0.286959, -693.000000, -703.500000, -229.500000, -83.941456, -92.110912, -99.453040,  -0.033843,  -0.700098,   0.108422,  -0.704883, 
34095,  10.246002,  -1.826144,  -0.931029,   1.016687,   0.333270,  -0.634206,  -0.985040,  -0.833754,  -0.301726, -693.000000, -706.500000, -234.000000, -83.942976, -92.097320, -99.445352,  -0.033722,  -0.700111,   0.108282,  -0.704898, 
34096,   9.578890,  -0.166837,   0.578047,  -3.468413,   0.270106,   0.464050,  -0.988655,  -0.843076,  -0.302557, -694.500000, -709.500000, -234.000000, -83.944864, -92.235512, -99.326112,  -0.033845,  -0.700183,   0.108392,  -0.704801, 
34097,   9.403896,  -1.296997,  -0.330519,   2.088967,  -0.064337,  -0.590778,  -0.991570,  -0.846335,  -0.311886, -696.000000, -711.000000, -237.000000, -83.919656, -92.444232, -99.125816,  -0.033733,  -0.700295,   0.108606,  -0.704665, 
34098,  10.315536,  -1.609761,  -0.466166,   0.578045,   0.364943,  -0.046676,  -0.987971,  -0.839818,  -0.320707, -694.500000, -709.500000, -240.000000, -83.849072, -92.933128, -98.625616,  -0.033210,  -0.700593,   0.108988,  -0.704360, 
34099,   9.840332,  -0.683676,   0.238135,  -1.895948,   0.092934,   0.543980,  -0.976363,  -0.835206,  -0.312351, -688.500000, -708.000000, -237.000000, -83.860328, -92.690584, -98.874768,  -0.033328,  -0.700428,   0.108950,  -0.704513, 
34100,   9.520207,  -1.089538,  -0.111740,   1.639977,   0.013871,  -0.380629,  -0.974182,  -0.843626,  -0.313830, -687.000000, -711.000000, -237.000000, -83.936968, -92.283272, -99.287176,  -0.033848,  -0.700200,   0.108496,  -0.704768, 
34101,   9.956776,  -1.354523,  -0.259814,   0.342441,   0.204126,   0.098721,  -0.985228,  -0.837375,  -0.306841, -693.000000, -708.000000, -235.500000, -83.893240, -92.483240, -99.078832,  -0.033519,  -0.700310,   0.108720,  -0.704643, 
34102,   9.824673,  -0.890618,  -0.019040,  -1.071351,   0.288270,  -0.127129,  -0.986254,  -0.842262,  -0.279616, -693.000000, -708.000000, -226.500000, -83.892152, -92.561608, -99.003712,  -0.033529,  -0.700360,   0.108750,  -0.704593, 
34103,   9.739248,  -0.594156,   0.267935,   0.704034,   0.098342,   0.063113,  -0.981175,  -0.850230,  -0.281419, -690.000000, -711.000000, -226.500000, -83.966976, -91.980320, -99.589512,  -0.034043,  -0.700030,   0.108297,  -0.704968, 
34104,   9.750310,  -1.232248,  -0.137269,   0.462425,   0.047498,   0.451180,  -0.980816,  -0.845795,  -0.280842, -690.000000, -709.500000, -226.500000, -83.949416, -92.070984, -99.493296,  -0.033896,  -0.700079,   0.108374,  -0.704909, 
34105,   9.752024,  -1.163048,  -0.173210,  -0.331787,   0.301613,  -0.667030,  -0.975208,  -0.848513,  -0.286605, -687.000000, -711.000000, -228.000000, -83.933312, -92.315120, -99.248536,  -0.033783,  -0.700225,   0.108478,  -0.704750, 
34106,   9.733298,  -0.266610,   0.508311,  -0.850090,   0.083110,  -0.137039,  -0.972342,  -0.853674,  -0.306234, -685.500000, -714.000000, -234.000000, -83.991264, -91.910584, -99.657528,  -0.034186,  -0.700007,   0.108135,  -0.705014, 
34107,   9.647040,  -1.137315,  -0.117909,   0.403899,   0.152749,   0.130397,  -0.974882,  -0.849690,  -0.305332, -687.000000, -712.500000, -234.000000, -83.985264, -91.968104, -99.596216,  -0.034123,  -0.700041,   0.108151,  -0.704976, 
34108,   9.830466,  -1.211999,  -0.078822,  -0.151936,   0.284346,  -0.482594,  -0.977780,  -0.850141,  -0.305008, -688.500000, -712.500000, -234.000000, -83.961040, -92.023592, -99.538368,  -0.033956,  -0.700060,   0.108287,  -0.704941, 
34109,   9.796275,  -0.510619,   0.345728,  -1.073128,   0.137919,   0.044238,  -0.978326,  -0.858198,  -0.310701, -688.500000, -715.500000, -235.500000, -83.999552, -91.727520, -99.839176,  -0.034237,  -0.699905,   0.108069,  -0.705141, 
34110,   9.624167,  -1.075942,  -0.023021,   0.360465,   0.090218,   0.059184,  -0.969103,  -0.851593,  -0.315633, -684.000000, -714.000000, -237.000000, -84.011920, -91.584688, -99.980296,  -0.034309,  -0.699824,   0.107976,  -0.705231, 
34111,   9.911581,  -1.167760,  -0.211565,   0.017995,   0.124536,  -0.344314,  -0.977626,  -0.852133,  -0.319198, -688.500000, -714.000000, -238.500000, -83.992640, -91.800760, -99.761280,  -0.034162,  -0.699948,   0.108085,  -0.705091, 
34112,   9.774908,  -0.660548,  -0.015713,  -0.912568,  -0.083612,   0.285754,  -0.989918,  -0.860004,  -0.309405, -694.500000, -715.500000, -235.500000, -84.018048, -91.893736, -99.673208,  -0.034345,  -0.700018,   0.107964,  -0.705024, 
34113,   9.792935,  -0.886432,  -0.293700,   0.602082,   0.186872,  -0.066980,  -0.983218,  -0.846609,  -0.303783, -691.500000, -711.000000, -234.000000, -84.054952, -91.680992, -99.886568,  -0.034587,  -0.699918,   0.107734,  -0.705164, 
34114,   9.971485,  -1.574957,  -0.001887,   0.186353,   0.584781,  -0.725915,  -0.985398,  -0.838189,  -0.302304, -693.000000, -708.000000, -234.000000, -83.999784, -91.875848, -99.684088,  -0.034190,  -0.700000,   0.108032,  -0.705039, 
34115,   9.807404,  -0.596271,   0.303261,  -1.604603,   0.237106,   0.066254,  -0.979057,  -0.829230,  -0.297259, -690.000000, -705.000000, -232.500000, -84.030608, -91.676512, -99.889904,  -0.034429,  -0.699897,   0.107875,  -0.705170, 
34116,   9.725521,  -1.485704,  -0.112840,   1.248001,   0.252919,  -0.781036,  -0.979244,  -0.832851,  -0.302374, -690.000000, -706.500000, -234.000000, -84.043336, -91.547512, -100.017824,  -0.034507,  -0.699825,   0.107785,  -0.705251, 
34117,  10.400558,  -1.987935,  -0.347167,   1.692694,   0.441932,  -3.644750,  -0.985586,  -0.841810,  -0.307419, -693.000000, -709.500000, -235.500000, -83.963024, -91.738304, -99.813808,  -0.033921,  -0.699897,   0.108204,  -0.705140, 
34118,  11.339458,  -2.416519,  -1.355544,   1.946639,   2.040552,  -2.290703,  -0.981971,  -0.832488,  -0.306588, -691.500000, -706.500000, -235.500000, -83.902976, -91.949544, -99.580968,  -0.033407,  -0.699999,   0.108447,  -0.705004, 
34119,   7.999287,   4.623980,   3.326196,  -6.536972,   0.663085,  -0.615828,  -0.977609,  -0.849327,  -0.309546, -688.500000, -712.500000, -235.500000, -83.951664, -92.067336, -99.488744,  -0.033860,  -0.700085,   0.108310,  -0.704914, 
34120,   8.687166,  -0.443043,   0.108524,   0.817901,  -1.285862,   0.805634,  -0.980866,  -0.854214,  -0.309799, -690.000000, -714.000000, -235.500000, -83.931048, -92.115792, -99.436480,  -0.033707,  -0.700105,   0.108415,  -0.704884, 
34121,  10.171843,  -1.023263,  -0.626773,  -0.846460,  -0.359948,   0.203246,  -0.982688,  -0.841359,  -0.307743, -691.500000, -709.500000, -235.500000, -83.910800, -92.623480, -98.920672,  -0.033512,  -0.700436,   0.108509,  -0.704561, 
34122,  10.484125,   0.021166,   1.417055,  -1.397118,  -1.098886,   1.585225,  -0.977080,  -0.844077,  -0.313506, -688.500000, -711.000000, -237.000000, -83.890480, -92.717480, -98.838824,  -0.033458,  -0.700476,   0.108712,  -0.704500, 
34123,   9.565561,  -1.810597,  -0.781730,   3.787201,  -0.616755,   0.780609,  -0.977609,  -0.849327,  -0.309546, -688.500000, -712.500000, -235.500000, -83.875040, -92.763712, -98.775264,  -0.033254,  -0.700515,   0.108702,  -0.704477, 
34124,   9.712437,  -2.603484,  -1.181307,   1.786354,   0.572513,  -2.414283,  -0.983968,  -0.861093,  -0.324243, -691.500000, -717.000000, -240.000000, -83.890360, -92.735128, -98.765248,  -0.033113,  -0.700542,   0.108372,  -0.704506, 
34125,  10.308662,  -0.749987,   0.203023,  -3.306923,   0.523403,  -2.131850,  -0.977284,  -0.850504,  -0.328273, -688.500000, -714.000000, -241.500000, -83.931104, -92.569960, -98.950392,  -0.033493,  -0.700435,   0.108237,  -0.704601, 
34126,   9.673308,  -1.214036,   0.088201,   0.650451,   1.151872,  -2.703701,  -0.971642,  -0.847610,  -0.314731, -685.500000, -712.500000, -237.000000, -83.958912, -92.477720, -99.053880,  -0.033738,  -0.700381,   0.108132,  -0.704655, 
34127,   9.833404,  -1.066141,  -0.029717,   0.102204,   1.240695,  -2.977954,  -0.975053,  -0.850505,  -0.300795, -687.000000, -712.500000, -232.500000, -83.967888, -92.297792, -99.228112,  -0.033765,  -0.700273,   0.108035,  -0.704770, 
34128,   9.798541,   1.076717,   1.564926,  -0.304976,   0.399148,  -0.717219,  -0.983030,  -0.842988,  -0.298668, -691.500000, -709.500000, -232.500000, -83.989336, -92.243136, -99.286920,  -0.033925,  -0.700249,   0.107927,  -0.704804, 
34129,   9.337542,  -1.053209,   0.451710,   2.100013,  -0.250868,   0.246346,  -0.983234,  -0.849416,  -0.313435, -691.500000, -712.500000, -237.000000, -83.993616, -91.588024, -99.920168,  -0.033846,  -0.699867,   0.107741,  -0.705249, 
34130,   9.612214,  -0.580147,   0.144178,   3.758955,  -0.209762,  -0.443454,  -0.974011,  -0.842811,  -0.318367, -687.000000, -711.000000, -238.500000, -84.044328, -91.298784, -100.178768,  -0.033985,  -0.699746,   0.107230,  -0.705433, 
34131,  10.179184,  -0.857633,   0.219100,   3.577144,  -0.309688,  -0.156167,  -0.969866,  -0.828238,  -0.321496, -685.500000, -706.500000, -240.000000, -84.065128, -91.020904, -100.417960,  -0.033889,  -0.699612,   0.106851,  -0.705609, 
34132,   9.654774,  -0.797033,   0.022642,   4.049625,  -0.171583,  -0.578820,  -0.975287,  -0.821900,  -0.310618, -688.500000, -703.500000, -237.000000, -84.089184, -91.034848, -100.364960,  -0.033796,  -0.699678,   0.106467,  -0.705608, 
34133,   9.752711,  -0.659127,   0.538876,   5.906067,  -0.311422,  -1.192300,  -0.976517,  -0.833214,  -0.298161, -688.500000, -706.500000, -232.500000, -84.137232, -90.271200, -101.075120,  -0.033806,  -0.699297,   0.105806,  -0.706105, 
34134,  10.149901,  -0.861458,   0.256584,   7.589625,  -0.549200,  -1.706924,  -0.980816,  -0.845795,  -0.280842, -690.000000, -709.500000, -226.500000, -84.179296, -89.799576, -101.476416,  -0.033661,  -0.699106,   0.105091,  -0.706410, 
34135,   9.824326,  -0.997073,   0.345606,   8.964656,  -0.488253,  -3.093801,  -0.983902,  -0.849867,  -0.285633, -691.500000, -711.000000, -228.000000, -84.198768, -89.326560, -101.863088,  -0.033279,  -0.698898,   0.104413,  -0.706711, 
34136,   9.827772,  -0.722171,   0.628311,  11.477236,  -0.818106,  -4.624007,  -0.979961,  -0.841722,  -0.303529, -690.000000, -709.500000, -234.000000, -84.269272, -88.462976, -102.622024,  -0.033130,  -0.698555,   0.103286,  -0.707268, 
34137,  10.126083,  -0.872822,   0.558038,  13.677967,  -1.128360,  -6.134093,  -0.973603,  -0.829956,  -0.288832, -687.000000, -705.000000, -229.500000, -84.337184, -87.596592, -103.357976,  -0.032811,  -0.698204,   0.102007,  -0.707782, 
34138,  10.047359,  -0.632637,   0.586992,  15.755276,  -1.075142,  -8.139982,  -0.976843,  -0.832036,  -0.279433, -688.500000, -705.000000, -226.500000, -84.435920, -86.788144, -104.015200,  -0.032552,  -0.697982,   0.100418,  -0.708262, 
34139,   9.724280,  -0.389069,   0.917734,  18.182350,  -1.309057,  -9.890868,  -0.980645,  -0.844980,  -0.285379, -690.000000, -709.500000, -228.000000, -84.546312, -86.250448, -104.380168,  -0.032208,  -0.697942,   0.098646,  -0.708542, 
34140,  10.091142,  -0.441466,   0.789416,  20.892256,  -1.591961, -11.039971,  -0.975924,  -0.857383,  -0.287760, -687.000000, -714.000000, -228.000000, -84.650568, -86.157832, -104.275776,  -0.031636,  -0.698189,   0.096805,  -0.708580, 
34141,  10.108379,  -0.383315,   0.799617,  23.097268,  -1.632267, -13.497702,  -0.973026,  -0.856932,  -0.288084, -685.500000, -714.000000, -228.000000, -84.772736, -86.037000, -104.173992,  -0.031017,  -0.698464,   0.094698,  -0.708628, 
34142,   9.905588,  -0.156034,   0.800293,  25.700004,  -1.712879, -15.537893,  -0.977576,  -0.843714,  -0.290241, -688.500000, -709.500000, -229.500000, -84.917664, -85.882568, -104.083408,  -0.030401,  -0.698766,   0.092313,  -0.708683, 
34143,  10.159618,  -0.228400,   0.640170,  28.598980,  -1.763994, -17.669064,  -0.979181,  -0.862270,  -0.288013, -688.500000, -715.500000, -228.000000, -85.083632, -85.690584, -104.002344,  -0.029743,  -0.699085,   0.089624,  -0.708737, 
34144,  10.445950,  -0.308335,   0.454315,  31.275108,  -1.733976, -21.828066,  -0.978589,  -0.886440,  -0.277612, -687.000000, -723.000000, -223.500000, -85.279592, -85.437160, -103.955096,  -0.029100,  -0.699424,   0.086579,  -0.708794, 
34145,  10.272819,  -0.229811,   0.516488,  33.975592,  -1.621686, -27.485148,  -0.975332,  -0.881553,  -0.277359, -685.500000, -721.500000, -223.500000, -85.525872, -85.087856, -103.977976,  -0.028613,  -0.699804,   0.083065,  -0.708862, 
34146,  10.095378,  -0.455491,   0.413831,  36.879012,  -1.805929, -31.886230,  -0.968974,  -0.869787,  -0.262662, -682.500000, -717.000000, -219.000000, -85.836984, -84.260288, -104.449600,  -0.028372,  -0.700081,   0.078942,  -0.709084, 
34147,  10.019041,  -0.468295,   0.297844,  38.915728,  -1.621406, -33.940520,  -0.971872,  -0.870238,  -0.262338, -684.000000, -717.000000, -219.000000, -86.187920, -83.006272, -105.322656,  -0.028246,  -0.700281,   0.074393,  -0.709383, 
34148,   9.877439,  -0.391813,   0.259594,  40.216612,  -1.313532, -34.617924,  -0.975282,  -0.873134,  -0.248401, -685.500000, -717.000000, -214.500000, -86.546688, -81.620200, -106.312968,  -0.028077,  -0.700509,   0.069702,  -0.709620, 
34149,   9.783491,  -0.192072,   0.355883,  41.094364,  -1.168508, -34.857092,  -0.963269,  -0.896311,  -0.234759, -678.000000, -724.500000, -208.500000, -86.920120, -79.867608, -107.658072,  -0.027940,  -0.700734,   0.064832,  -0.709861, 
34150,  10.023410,  -0.299700,   0.122253,  41.701652,  -1.110002, -35.905320,  -0.954763,  -0.898578,  -0.240845, -673.500000, -726.000000, -210.000000, -87.285024, -78.144152, -108.966488,  -0.027686,  -0.701066,   0.059983,  -0.709969, 
34151,   9.936655,  -0.127178,   0.080872,  41.508508,  -0.514466, -37.251628,  -0.955138,  -0.905820,  -0.251076, -673.500000, -729.000000, -213.000000, -87.675016, -76.312624, -110.382712,  -0.027564,  -0.701516,   0.054996,  -0.709921, 
34152,   9.955271,   0.037235,   0.144532,  41.063424,  -0.448550, -38.291008,  -0.958394,  -0.910707,  -0.251329, -675.000000, -730.500000, -213.000000, -88.071160, -72.945896, -113.336536,  -0.027570,  -0.701804,   0.049909,  -0.710021, 
34153,  10.305885,   0.088262,   0.046590,  40.670080,   0.083876, -40.670492,  -0.946957,  -0.906909,  -0.238435, -669.000000, -729.000000, -208.500000, -88.477352, -68.388216, -117.486256,  -0.027683,  -0.702182,   0.044774,  -0.709989, 
34154,  10.478957,   0.045245,  -0.219296,  40.544364,   0.459865, -46.480696,  -0.945664,  -0.925014,  -0.236531, -667.500000, -735.000000, -207.000000, -88.881104, -59.359668, -126.109728,  -0.027968,  -0.702440,   0.039499,  -0.710036, 
34155,  10.186499,   0.070921,  -0.218704,  39.623604,   0.910807, -51.711360,  -0.953765,  -0.950538,  -0.225158, -670.500000, -742.500000, -202.500000, -89.296400, -39.063760, -146.007360,  -0.028695,  -0.702882,   0.033864,  -0.709859, 
34156,   9.910993,  -0.029021,  -0.284432,  38.304560,   1.154303, -53.989168,  -0.951551,  -0.953344,  -0.207333, -669.000000, -742.500000, -196.500000, -89.485656,   9.478075, 165.839040,   0.029537,   0.703376,  -0.028237,   0.709589, 
34157,  10.008492,  -0.063983,  -0.374156,  36.578232,   1.541858, -54.945088,  -0.937591,  -0.956337,  -0.204993, -661.500000, -744.000000, -195.000000, -89.242832,  53.825200, 121.864712,   0.030460,   0.703941,  -0.022715,   0.709169, 
34158,   9.779766,   0.150143,  -0.305485,  34.187436,   1.962704, -55.486124,  -0.930160,  -0.971910,  -0.212812, -657.000000, -750.000000, -196.500000, -88.778912,  71.102800, 104.939584,   0.031622,   0.704420,  -0.017205,   0.708806, 
34159,   9.683513,   0.073978,  -0.448484,  31.688288,   2.024307, -54.999088,  -0.925968,  -0.989563,  -0.211233, -654.000000, -756.000000, -195.000000, -88.276832,  78.635664,  97.735752,   0.032868,   0.704881,  -0.011898,   0.708409, 
34160,   9.692589,   0.205133,  -0.450688,  28.878238,   2.156230, -53.069540,  -0.923242,  -0.989926,  -0.207019, -652.500000, -756.000000, -193.500000, -87.769720,  82.856536,  93.817560,   0.034213,   0.705333,  -0.006817,   0.707961, 
34161,   9.630399,   0.294143,  -0.513648,  26.043088,   2.359513, -51.112884,  -0.925610,  -0.985128,  -0.210655, -654.000000, -754.500000, -195.000000, -87.279696,  85.679176,  91.271072,   0.035575,   0.705827,  -0.002046,   0.707464, 
34162,   9.645741,   0.383015,  -0.354129,  23.583874,   2.320289, -49.443604,  -0.926669,  -0.995628,  -0.202735, -654.000000, -757.500000, -192.000000, -86.793320,  87.420640,  89.780480,   0.037041,   0.706186,   0.002517,   0.707001, 
34163,   9.659052,   0.427157,  -0.604820,  20.798958,   2.380762, -47.558556,  -0.924067,  -1.029032,  -0.189276, -651.000000, -768.000000, -186.000000, -86.336976,  89.027120,  88.400192,   0.038463,   0.706660,   0.006733,   0.706413, 
34164,   9.816362,   0.712621,  -0.334928,  18.399904,   2.304577, -46.132948,  -0.912475,  -1.027226,  -0.190572, -645.000000, -768.000000, -186.000000, -85.875552,  89.939560,  87.687600,   0.040071,   0.706979,   0.010808,   0.705979, 
34165,   9.876990,   0.858648,  -0.185065,  16.544933,   2.217610, -46.581376,  -0.908860,  -1.017903,  -0.189741, -643.500000, -765.000000, -186.000000, -85.414736,  90.391600,  87.414704,   0.041800,   0.707117,   0.014751,   0.705648, 
34166,   9.939269,   0.886679,  -0.141499,  15.748082,   2.232369, -47.538512,  -0.907550,  -1.033201,  -0.178185, -642.000000, -769.500000, -181.500000, -84.946856,  90.620216,  87.350544,   0.043665,   0.707166,   0.018648,   0.705387, 
34167,   9.811893,   0.701065,  -0.149067,  15.199392,   2.249225, -47.970700,  -0.904402,  -1.058549,  -0.159033, -639.000000, -777.000000, -174.000000, -84.487976,  90.691768,  87.435432,   0.045527,   0.707135,   0.022442,   0.705203, 
34168,   9.514225,   0.601853,  -0.170829,  14.795949,   2.442179, -46.944768,  -0.897734,  -1.050767,  -0.172716, -636.000000, -775.500000, -178.500000, -84.049264,  90.743176,  87.536024,   0.047290,   0.707068,   0.026084,   0.705014, 
34169,   9.350351,   0.586483,  -0.128388,  14.500045,   2.665829, -43.332332,  -0.891254,  -1.046605,  -0.191514, -633.000000, -775.500000, -184.500000, -83.647912,  90.781016,  87.648064,   0.048837,   0.706987,   0.029481,   0.704845, 
34170,   9.445664,   0.634458,  -0.077481,  14.031517,   2.910936, -39.077400,  -0.898997,  -1.067694,  -0.179563, -636.000000, -781.500000, -180.000000, -83.293120,  90.771096,  87.803848,   0.050124,   0.706876,   0.032568,   0.704734, 
34171,   9.536370,   1.156186,   0.079353,  13.260731,   2.795331, -35.920076,  -0.891908,  -1.084896,  -0.178308, -631.500000, -787.500000, -178.500000, -82.943592,  90.649624,  88.064512,   0.051421,   0.706677,   0.035583,   0.704713, 
34172,   9.518746,   1.104011,   0.210202,  12.660738,   2.425595, -33.679196,  -0.879754,  -1.072227,  -0.164259, -625.500000, -783.000000, -174.000000, -82.596472,  90.315632,  88.530544,   0.052750,   0.706285,   0.038541,   0.704862, 
34173,   9.620896,   1.254833,  -0.084015,  12.150334,   2.392527, -31.666318,  -0.882448,  -1.066251,  -0.149167, -627.000000, -780.000000, -169.500000, -82.295608,  90.359192,  88.615824,   0.053808,   0.706179,   0.041187,   0.704734, 
34174,   9.665482,   1.230070,   0.106333,  11.866333,   2.505100, -30.649200,  -0.880300,  -1.080284,  -0.169951, -625.500000, -786.000000, -175.500000, -81.999848,  90.297904,  88.800824,   0.054867,   0.705980,   0.043772,   0.704691, 
34175,   9.556949,   1.294083,  -0.077973,  11.837581,   2.477724, -29.048662,  -0.877964,  -1.090695,  -0.185620, -624.000000, -790.500000, -180.000000, -81.716248,  90.280864,  88.938912,   0.055868,   0.705818,   0.046264,   0.704622, 
34176,   9.531510,   1.220113,   0.032737,  11.913122,   2.629590, -27.139190,  -0.878306,  -1.092324,  -0.176545, -624.000000, -790.500000, -177.000000, -81.457560,  90.263328,  89.077224,   0.056717,   0.705652,   0.048601,   0.704562, 
34177,   9.521508,   1.244997,   0.019696,  11.994406,   2.524376, -25.051456,  -0.886813,  -1.090057,  -0.170458, -628.500000, -789.000000, -175.500000, -81.226136,  90.205744,  89.256960,   0.057389,   0.705445,   0.050777,   0.704550, 
34178,   9.516301,   1.148142,  -0.000474,  12.076587,   2.544728, -22.761314,  -0.873553,  -1.099114,  -0.159621, -621.000000, -792.000000, -171.000000, -81.025024,  90.182320,  89.403568,   0.057868,   0.705279,   0.052773,   0.704527, 
34179,   9.541468,   1.328134,   0.075967,  12.503995,   2.696425, -20.726126,  -0.862849,  -1.106994,  -0.157534, -615.000000, -795.000000, -169.500000, -80.838088,  90.113600,  89.597504,   0.058249,   0.705072,   0.054695,   0.704563, 
34180,   9.669942,   1.399056,   0.108251,  13.232050,   2.755471, -19.281070,  -0.864688,  -1.096945,  -0.165130, -616.500000, -792.000000, -172.500000, -80.665696,  89.969088,  89.871800,   0.058512,   0.704792,   0.056555,   0.704694, 
34181,   9.675299,   1.615671,   0.235324,  14.229492,   3.014901, -18.543128,  -0.865730,  -1.104639,  -0.147558, -616.500000, -793.500000, -166.500000, -80.481688,  89.746336,  90.231512,   0.058800,   0.704395,   0.058528,   0.704892, 
34182,   9.660908,   1.546147,   0.155497,  15.460499,   3.360203, -18.305860,  -0.857411,  -1.110526,  -0.158760, -612.000000, -796.500000, -169.500000, -80.308392,  89.582328,  90.545448,   0.058942,   0.704048,   0.060513,   0.705052, 
34183,   9.722003,   1.688244,   0.193820,  16.863156,   3.696225, -18.066862,  -0.853813,  -1.104011,  -0.167581, -610.500000, -795.000000, -172.500000, -80.131640,  89.436168,  90.855208,   0.059021,   0.703704,   0.062603,   0.705210, 
34184,   9.739181,   1.526528,   0.048658,  18.179358,   3.896736, -18.275078,  -0.869891,  -1.122018,  -0.154081, -618.000000, -799.500000, -168.000000, -79.972440,  89.383088,  91.087664,   0.058895,   0.703447,   0.064681,   0.705286, 
34185,   9.761057,   1.638009,   0.111454,  19.308000,   4.212658, -18.613854,  -0.865170,  -1.134422,  -0.156462, -615.000000, -804.000000, -168.000000, -79.800448,  89.286312,  91.374808,   0.058779,   0.703126,   0.066905,   0.705417, 
34186,   9.741632,   1.664181,   0.062343,  20.479732,   4.473025, -19.362174,  -0.849964,  -1.123293,  -0.156926, -607.500000, -801.000000, -168.000000, -79.622448,  89.189000,  91.673944,   0.058628,   0.702769,   0.069233,   0.705542, 
34187,   9.662159,   1.799076,   0.183417,  21.673536,   4.909250, -19.727106,  -0.852674,  -1.120124,  -0.151488, -609.000000, -799.500000, -166.500000, -79.430000,  89.037632,  92.037856,   0.058498,   0.702327,   0.071713,   0.705737, 
34188,   9.514521,   1.800136,   0.217727,  23.543948,   5.232167, -19.132172,  -0.856102,  -1.125825,  -0.147204, -610.500000, -801.000000, -165.000000, -79.235400,  88.858896,  92.444976,   0.058282,   0.701838,   0.074301,   0.705988, 
34189,   9.603831,   1.782655,   0.102184,  25.181758,   5.620168, -18.283356,  -0.847049,  -1.120035,  -0.147598, -606.000000, -799.500000, -165.000000, -79.057112,  88.753384,  92.798336,   0.057848,   0.701426,   0.076909,   0.706185, 
34190,   9.639961,   1.849493,   0.095941,  26.675904,   6.094946, -17.733384,  -0.843638,  -1.117140,  -0.161535, -604.500000, -799.500000, -169.500000, -78.886952,  88.706280,  93.110728,   0.057256,   0.701047,   0.079573,   0.706309, 
34191,   9.678671,   1.810242,   0.074957,  27.821298,   6.328511, -17.738856,  -0.833993,  -1.135519,  -0.151528, -598.500000, -805.500000, -165.000000, -78.721376,  88.648640,  93.445496,   0.056563,   0.700643,   0.082280,   0.706458, 
34192,   9.793317,   2.010071,   0.163292,  28.606970,   6.718096, -18.519116,  -0.832121,  -1.139955,  -0.124627, -597.000000, -805.500000, -156.000000, -78.538072,  88.573472,  93.807536,   0.055916,   0.700178,   0.085151,   0.706626, 
34193,   9.751307,   2.030386,   0.170600,  29.304246,   6.914225, -20.063844,  -0.849338,  -1.141849,  -0.127220, -606.000000, -805.500000, -157.500000, -78.343240,  88.483160,  94.193264,   0.055287,   0.699667,   0.088143,   0.706820, 
34194,   9.726162,   2.129690,   0.175267,  30.007520,   7.171637, -21.411116,  -0.843371,  -1.140132,  -0.132406, -603.000000, -805.500000, -159.000000, -78.124848,  88.387976,  94.590184,   0.054760,   0.699088,   0.091312,   0.707002, 
34195,   9.799632,   2.127839,   0.198305,  30.620410,   7.570146, -22.652442,  -0.841703,  -1.150995,  -0.120272, -601.500000, -808.500000, -154.500000, -77.900336,  88.291912,  94.994920,   0.054228,   0.698488,   0.094558,   0.707201, 
34196,   9.609716,   2.220888,   0.324953,  31.382920,   7.870878, -23.228562,  -0.839335,  -1.155793,  -0.116636, -600.000000, -810.000000, -153.000000, -77.652904,  88.155208,  95.447112,   0.053790,   0.697797,   0.097981,   0.707467, 
34197,   9.709591,   2.232426,   0.081770,  32.033532,   8.118797, -24.522436,  -0.837854,  -1.170278,  -0.109618, -598.500000, -814.500000, -150.000000, -77.409664,  88.127064,  95.800856,   0.053272,   0.697222,   0.101444,   0.707598, 
34198,   9.814394,   2.292050,   0.062133,  32.233806,   8.353450, -25.908528,  -0.835298,  -1.171455,  -0.100867, -597.000000, -814.500000, -147.000000, -77.145336,  88.143968,  96.115544,   0.052849,   0.696645,   0.105072,   0.707648, 
34199,   9.768904,   2.426118,   0.025164,  31.744742,   8.417941, -28.024684,  -0.831154,  -1.156882,  -0.103996, -595.500000, -810.000000, -148.500000, -76.862744,  88.168880,  96.420800,   0.052548,   0.696046,   0.108800,   0.707685, 
34200,   9.691199,   2.491622,   0.101482,  31.315838,   8.564776, -30.248950,  -0.820604,  -1.162770,  -0.087720, -589.500000, -811.500000, -142.500000, -76.544808,  88.115736,  96.796464,   0.052503,   0.695291,   0.112687,   0.707829, 
34201,   9.691693,   2.529399,   0.017839,  30.721730,   8.486967, -32.018746,  -0.818423,  -1.171189,  -0.089199, -588.000000, -814.500000, -142.500000, -76.208120,  88.103584,  97.127000,   0.052603,   0.694558,   0.116664,   0.707914, 
34202,   9.693160,   2.789705,   0.279339,  29.966382,   8.664472, -33.995608,  -0.819328,  -1.183681,  -0.095469, -588.000000, -819.000000, -144.000000, -75.845072,  88.023768,  97.517800,   0.052901,   0.693661,   0.120741,   0.708080, 
34203,   9.607816,   2.783537,   0.251879,  29.754542,   8.744042, -36.326020,  -0.817114,  -1.186488,  -0.077643, -586.500000, -819.000000, -138.000000, -75.455816,  87.927232,  97.920160,   0.053387,   0.692673,   0.124936,   0.708263, 
34204,   9.753339,   2.882396,   0.194867,  29.436036,   8.944552, -38.635148,  -0.808607,  -1.188755,  -0.083729, -582.000000, -820.500000, -139.500000, -75.044216,  87.889528,  98.263120,   0.054021,   0.691732,   0.129267,   0.708370, 
34205,   9.637268,   2.870941,   0.075896,  29.018482,   9.083612, -41.410616,  -0.795005,  -1.196182,  -0.081967, -574.500000, -823.500000, -138.000000, -74.616488,  87.915944,  98.540440,   0.054772,   0.690850,   0.133692,   0.708374, 
34206,   9.505704,   2.961430,   0.180092,  28.449778,   9.182279, -43.062880,  -0.792791,  -1.198989,  -0.064141, -573.000000, -823.500000, -132.000000, -74.162408,  87.920528,  98.833672,   0.055717,   0.689850,   0.138226,   0.708377, 
34207,   9.362092,   2.931902,   0.094870,  27.910614,   9.277820, -44.150156,  -0.790423,  -1.203787,  -0.060505, -571.500000, -825.000000, -130.500000, -73.702696,  87.951880,  99.096752,   0.056721,   0.688873,   0.142773,   0.708336, 
34208,   9.338333,   3.164792,   0.184294,  27.431086,   9.376481, -43.819104,  -0.789535,  -1.194102,  -0.063888, -571.500000, -822.000000, -132.000000, -73.228192,  87.952096,  99.384856,   0.057849,   0.687813,   0.147364,   0.708356, 
34209,   9.213259,   3.096169,   0.214528,  27.261972,   9.482482, -43.070632,  -0.792962,  -1.199803,  -0.059604, -573.000000, -823.500000, -130.500000, -72.758816,  87.934160,  99.687016,   0.058967,   0.686693,   0.151887,   0.708395, 
