Standard output of YIS Manager:
  TID,     AccX,     AccY,     AccZ,    AngVX,    AngVY,    AngVZ,     MagX,     MagY,     MagZ, NormMagX, NormMagY, NormMagZ,    Pitch,     Roll,      Yaw,       q0,       q1,       q2,       q3, 
27423,   0.056514,   9.463284,   4.042226, -37.624384,  -5.050046,  -2.861311,   0.228585,  -0.648754,  -0.928711, -70.500000, -736.500000, -393.000000,  -0.676793,  68.582088,  18.020030,   0.815421,   0.557175,   0.083407,   0.132664, 
27424,   0.088543,   9.616574,   4.162373, -32.615796,  -4.784398,  -2.583841,   0.237621,  -0.645771,  -0.938758, -66.000000, -736.500000, -396.000000,  -0.666064,  68.193904,  17.962676,   0.817373,   0.554435,   0.082756,   0.132484, 
27425,   0.062584,   9.706813,   4.312143, -25.698700,  -4.328112,  -2.438613,   0.238867,  -0.631650,  -0.941563, -66.000000, -732.000000, -397.500000,  -0.661143,  67.903640,  17.909698,   0.818841,   0.552397,   0.082200,   0.132292, 
27426,   0.085471,   9.680571,   4.391968, -18.412692,  -3.871636,  -2.089149,   0.231403,  -0.621690,  -0.953049, -70.500000, -729.000000, -402.000000,  -0.657807,  67.685224,  17.861608,   0.819955,   0.550869,   0.081741,   0.132089, 
27427,   0.149865,   9.431007,   4.035817, -11.986292,  -3.529592,  -1.890435,   0.231762,  -0.617254,  -0.952471, -70.500000, -727.500000, -402.000000,  -0.658807,  67.512976,  17.818936,   0.820837,   0.549671,   0.081331,   0.131912, 
27428,   0.070746,   9.115021,   3.802488,  -9.606353,  -3.383210,  -1.765884,   0.229068,  -0.611278,  -0.937379, -72.000000, -724.500000, -397.500000,  -0.653706,  67.404888,  17.778780,   0.821401,   0.548916,   0.081050,   0.131675, 
27429,   0.145644,   8.943127,   3.602864, -10.043210,  -3.266398,  -1.733810,   0.232479,  -0.608383,  -0.951316, -70.500000, -724.500000, -402.000000,  -0.651343,  67.322840,  17.740124,   0.821837,   0.548351,   0.080788,   0.131444, 
27430,   0.038238,   9.051998,   3.761481, -10.901547,  -3.238091,  -1.803683,   0.237712,  -0.618344,  -0.967309, -67.500000, -729.000000, -406.500000,  -0.645081,  67.226464,  17.701626,   0.822344,   0.547677,   0.080538,   0.131206, 
27431,   0.076211,   9.095906,   3.900483, -10.703576,  -3.175818,  -1.713366,   0.236996,  -0.627214,  -0.968464, -67.500000, -732.000000, -406.500000,  -0.635848,  67.114288,  17.664176,   0.822927,   0.546887,   0.080297,   0.130971, 
27432,   0.035747,   9.143954,   3.891362,  -9.861524,  -3.124331,  -1.703175,   0.235173,  -0.614360,  -0.966408, -69.000000, -727.500000, -406.500000,  -0.628823,  67.010964,  17.627660,   0.823465,   0.546161,   0.080055,   0.130747, 
27433,   0.030239,   9.112676,   3.880676,  -8.820893,  -2.929928,  -1.488089,   0.238788,  -0.605037,  -0.965577, -67.500000, -724.500000, -406.500000,  -0.619188,  66.919112,  17.591990,   0.823949,   0.545514,   0.079849,   0.130509, 
27434,   0.121549,   9.032208,   3.736122,  -8.355354,  -2.744149,  -1.479660,   0.238976,  -0.601416,  -0.960462, -67.500000, -723.000000, -405.000000,  -0.619815,  66.844756,  17.559300,   0.824340,   0.545003,   0.079604,   0.130329, 
27435,   0.048493,   9.001022,   3.822900,  -8.826511,  -2.609068,  -1.369313,   0.241189,  -0.604222,  -0.942636, -66.000000, -723.000000, -399.000000,  -0.612226,  66.769508,  17.527536,   0.824739,   0.544475,   0.079423,   0.130116, 
27436,   0.080204,   8.993207,   3.825492,  -8.928081,  -2.457557,  -1.359037,   0.232137,  -0.610012,  -0.942241, -70.500000, -724.500000, -399.000000,  -0.606346,  66.687044,  17.497488,   0.825170,   0.543896,   0.079229,   0.129929, 
27437,   0.100862,   8.880367,   3.764782,  -9.511313,  -2.394193,  -1.407851,   0.218860,  -0.603762,  -0.962731, -78.000000, -723.000000, -406.500000,  -0.604684,  66.605432,  17.467908,   0.825593,   0.543328,   0.079008,   0.129765, 
27438,   0.047306,   8.865162,   3.796831, -11.151743,  -2.426228,  -1.452600,   0.224999,  -0.601230,  -0.972454, -75.000000, -723.000000, -409.500000,  -0.600639,  66.514288,  17.438448,   0.826063,   0.542688,   0.078795,   0.129597, 
27439,   0.123811,   8.824079,   3.795013, -12.586755,  -2.520821,  -1.461386,   0.231307,  -0.597883,  -0.986714, -72.000000, -723.000000, -414.000000,  -0.603655,  66.400980,  17.408696,   0.826633,   0.541896,   0.078504,   0.129474, 
27440,   0.087939,   8.831926,   3.784718, -14.142439,  -2.677906,  -1.568345,   0.222426,  -0.602859,  -0.990857, -76.500000, -724.500000, -415.500000,  -0.600576,  66.278192,  17.377134,   0.827255,   0.541031,   0.078239,   0.129317, 
27441,   0.088807,   8.769871,   3.787043, -16.040741,  -2.736051,  -1.616399,   0.221742,  -0.606117,  -0.972708, -76.500000, -724.500000, -409.500000,  -0.596840,  66.139672,  17.344748,   0.827954,   0.540052,   0.077958,   0.129160, 
27442,   0.047619,   8.770696,   3.750737, -18.074348,  -2.589494,  -1.705822,   0.234409,  -0.591004,  -0.972271, -70.500000, -720.000000, -409.500000,  -0.586376,  65.987448,  17.311996,   0.828713,   0.538962,   0.077707,   0.128978, 
27443,   0.084420,   8.701868,   3.750571, -20.666274,  -2.643077,  -1.753700,   0.233334,  -0.604311,  -0.974003, -70.500000, -724.500000, -409.500000,  -0.581008,  65.814040,  17.279392,   0.829564,   0.537720,   0.077398,   0.128833, 
27444,   0.102820,   8.724255,   3.817805, -23.235486,  -2.604371,  -1.719428,   0.232976,  -0.608746,  -0.974581, -70.500000, -726.000000, -409.500000,  -0.573933,  65.608324,  17.246664,   0.830566,   0.536242,   0.077064,   0.128701, 
27445,   0.168576,   8.629491,   3.789444, -26.017358,  -2.670520,  -1.797665,   0.239831,  -0.597343,  -0.983149, -67.500000, -723.000000, -412.500000,  -0.576921,  65.382584,  17.213616,   0.831655,   0.534630,   0.076635,   0.128627, 
27446,   0.102816,   8.537417,   3.871973, -29.489048,  -2.858503,  -2.045220,   0.243070,  -0.595263,  -0.992548, -66.000000, -723.000000, -415.500000,  -0.569596,  65.117988,  17.179092,   0.832935,   0.532725,   0.076230,   0.128519, 
27447,   0.119102,   8.585241,   3.965307, -32.882080,  -2.988889,  -2.203856,   0.235093,  -0.587747,  -0.990421, -70.500000, -720.000000, -415.500000,  -0.571144,  64.813888,  17.142054,   0.834395,   0.530545,   0.075707,   0.128460, 
27448,   0.127336,   8.574780,   4.064575, -35.564432,  -3.326418,  -2.346738,   0.230389,  -0.572536,  -0.978388, -73.500000, -714.000000, -412.500000,  -0.567908,  64.479476,  17.102442,   0.835985,   0.528129,   0.075173,   0.128376, 
27449,   0.104647,   8.578003,   4.216473, -37.901768,  -3.532981,  -2.624675,   0.229422,  -0.555609,  -0.999019, -75.000000, -709.500000, -420.000000,  -0.568369,  64.107108,  17.058868,   0.837739,   0.525435,   0.074552,   0.128302, 
27450,   0.176850,   8.546515,   4.220138, -39.828164,  -3.843590,  -2.768421,   0.232132,  -0.558779,  -1.004458, -73.500000, -711.000000, -421.500000,  -0.570364,  63.717964,  17.012696,   0.839573,   0.522621,   0.073891,   0.128226, 
27451,   0.074493,   8.482370,   4.299069, -42.043704,  -4.087110,  -3.066946,   0.237228,  -0.563940,  -0.996609, -70.500000, -712.500000, -418.500000,  -0.562597,  63.306336,  16.962000,   0.841521,   0.519635,   0.073258,   0.128085, 
27452,   0.140782,   8.470297,   4.292408, -44.279412,  -4.217999,  -3.189633,   0.229764,  -0.553980,  -1.008094, -75.000000, -709.500000, -423.000000,  -0.556516,  62.877912,  16.909176,   0.843512,   0.516506,   0.072584,   0.127941, 
27453,   0.079432,   8.481137,   4.386187, -46.633008,  -4.315301,  -3.369108,   0.228284,  -0.539496,  -1.015113, -76.500000, -705.000000, -426.000000,  -0.549201,  62.430240,  16.854956,   0.845587,   0.513232,   0.071895,   0.127790, 
27454,   0.045435,   8.451279,   4.557258, -48.343568,  -4.503694,  -3.483164,   0.231711,  -0.533795,  -1.019397, -75.000000, -703.500000, -427.500000,  -0.535296,  61.951560,  16.798530,   0.847806,   0.509721,   0.071214,   0.127612, 
27455,   0.148499,   8.492383,   4.685201, -49.611768,  -4.530821,  -3.560471,   0.232411,  -0.527730,  -1.027894, -75.000000, -702.000000, -430.500000,  -0.533294,  61.456776,  16.740826,   0.850053,   0.506082,   0.070421,   0.127479, 
27456,   0.088567,   8.477713,   4.866253, -49.846956,  -4.608269,  -3.736563,   0.242539,  -0.508633,  -1.026556, -70.500000, -696.000000, -430.500000,  -0.527258,  60.948868,  16.682030,   0.852354,   0.502337,   0.069642,   0.127326, 
27457,   0.129446,   8.467951,   4.871272, -49.855040,  -4.459929,  -3.724347,   0.248694,  -0.503295,  -1.026627, -67.500000, -694.500000, -430.500000,  -0.517067,  60.442072,  16.622684,   0.854652,   0.498594,   0.068897,   0.127148, 
27458,   0.108787,   8.486155,   5.048771, -49.665392,  -4.493334,  -3.793441,   0.246121,  -0.504924,  -1.045030, -69.000000, -696.000000, -436.500000,  -0.511833,  59.933776,  16.563898,   0.856908,   0.494818,   0.068116,   0.126988, 
27459,   0.066732,   8.461822,   5.196048, -48.664048,  -4.447142,  -3.780623,   0.244829,  -0.486819,  -1.046934, -70.500000, -690.000000, -438.000000,  -0.500706,  59.423420,  16.504805,   0.859178,   0.491021,   0.067381,   0.126799, 
27460,   0.103557,   8.436206,   5.226337, -47.373072,  -4.570539,  -3.943619,   0.237535,  -0.476044,  -1.062956, -75.000000, -687.000000, -444.000000,  -0.498864,  58.930032,  16.444662,   0.861357,   0.487353,   0.066593,   0.126629, 
27461,   0.115931,   8.345943,   5.259286, -46.277652,  -4.770077,  -4.007621,   0.237006,  -0.481294,  -1.058997, -75.000000, -688.500000, -442.500000,  -0.493376,  58.448264,  16.383127,   0.863459,   0.483751,   0.065840,   0.126420, 
27462,   0.084117,   8.287329,   5.247337, -45.648832,  -4.779825,  -4.084996,   0.242647,  -0.478399,  -1.045455, -72.000000, -687.000000, -438.000000,  -0.486249,  57.980796,  16.320320,   0.865503,   0.480255,   0.065115,   0.126184, 
27463,   0.105319,   8.155820,   5.268520, -46.041104,  -4.811132,  -4.199144,   0.248022,  -0.452512,  -1.061041, -70.500000, -679.500000, -444.000000,  -0.485114,  57.517140,  16.256830,   0.867515,   0.476786,   0.064349,   0.125962, 
27464,   0.121065,   8.112050,   5.361985, -46.921108,  -4.965165,  -4.372096,   0.254331,  -0.449166,  -1.075302, -67.500000, -679.500000, -448.500000,  -0.481271,  57.044636,  16.191483,   0.869537,   0.473232,   0.063588,   0.125713, 
27465,   0.138879,   8.037602,   5.494263, -47.548060,  -5.221361,  -4.694926,   0.246508,  -0.443641,  -1.087365, -72.000000, -678.000000, -453.000000,  -0.486390,  56.557452,  16.123259,   0.871618,   0.469576,   0.062734,   0.125485, 
27466,   0.102861,   8.008922,   5.565386, -48.034560,  -5.632509,  -4.909693,   0.241959,  -0.430423,  -1.089522, -75.000000, -673.500000, -454.500000,  -0.483454,  56.063988,  16.050240,   0.873718,   0.465857,   0.061919,   0.125185, 
27467,   0.086381,   7.947314,   5.576172, -48.477060,  -5.862572,  -5.258069,   0.250669,  -0.426262,  -1.080841, -70.500000, -672.000000, -451.500000,  -0.479306,  55.568184,  15.973540,   0.875803,   0.462105,   0.061099,   0.124848, 
27468,   0.072852,   7.841649,   5.651802, -49.378160,  -6.148760,  -5.577683,   0.253675,  -0.395577,  -1.100063, -70.500000, -663.000000, -459.000000,  -0.478562,  55.062384,  15.891687,   0.877933,   0.458281,   0.060226,   0.124488, 
27469,   0.153045,   7.958868,   5.679038, -50.212452,  -6.316892,  -5.781327,   0.242271,  -0.393762,  -1.093653, -76.500000, -661.500000, -457.500000,  -0.479031,  54.559524,  15.807338,   0.880027,   0.454469,   0.059341,   0.124105, 
27470,   0.082834,   7.847162,   5.842503, -50.556392,  -6.415530,  -6.091470,   0.248784,  -0.383988,  -1.093146, -73.500000, -658.500000, -457.500000,  -0.479655,  54.046092,  15.720670,   0.882145,   0.450565,   0.058439,   0.123705, 
27471,   0.129930,   7.759934,   5.933090, -50.660564,  -6.540155,  -6.155753,   0.252895,  -0.375028,  -1.115580, -72.000000, -657.000000, -465.000000,  -0.470877,  53.523164,  15.631514,   0.884308,   0.446578,   0.057595,   0.123250, 
27472,   0.182081,   7.772111,   5.944700, -50.824588,  -6.674606,  -6.429740,   0.242175,  -0.369956,  -1.127319, -78.000000, -655.500000, -469.500000,  -0.472300,  53.010148,  15.539822,   0.886390,   0.442658,   0.056677,   0.122802, 
27473,   0.115788,   7.739537,   6.127726, -50.619552,  -6.809310,  -6.586528,   0.249747,  -0.349681,  -1.134732, -75.000000, -649.500000, -472.500000,  -0.469520,  52.490340,  15.446101,   0.888492,   0.438676,   0.055782,   0.122321, 
27474,   0.093214,   7.718822,   6.194822, -49.753864,  -7.017156,  -6.833069,   0.254095,  -0.328681,  -1.123093, -73.500000, -642.000000, -469.500000,  -0.462343,  51.970684,  15.349336,   0.890588,   0.434686,   0.054916,   0.121794, 
27475,   0.061501,   7.719306,   6.320881, -48.810464,  -7.171488,  -7.016883,   0.260421,  -0.322528,  -1.127701, -70.500000, -640.500000, -471.000000,  -0.457642,  51.465628,  15.249998,   0.892586,   0.430790,   0.054041,   0.121242, 
27476,   0.109256,   7.602620,   6.363059, -47.394432,  -7.300457,  -7.247257,   0.260934,  -0.320085,  -1.141314, -70.500000, -640.500000, -475.500000,  -0.455990,  50.968392,  15.148625,   0.894555,   0.426959,   0.053150,   0.120678, 
27477,   0.151557,   7.541610,   6.347989, -46.639104,  -7.374475,  -7.466528,   0.252240,  -0.321439,  -1.140342, -75.000000, -640.500000, -475.500000,  -0.454356,  50.486672,  15.044418,   0.896457,   0.423243,   0.052270,   0.120079, 
27478,   0.111505,   7.464907,   6.371244, -45.978956,  -7.510201,  -7.618319,   0.259282,  -0.306415,  -1.143795, -72.000000, -636.000000, -477.000000,  -0.445972,  50.017028,  14.937730,   0.898288,   0.419599,   0.051452,   0.119424, 
27479,   0.050877,   7.407325,   6.325901, -46.202632,  -7.590917,  -7.848494,   0.257802,  -0.291931,  -1.150813, -73.500000, -631.500000, -480.000000,  -0.436269,  49.554920,  14.829329,   0.900094,   0.416013,   0.050653,   0.118745, 
27480,   0.009045,   7.378988,   6.402290, -46.647656,  -7.438723,  -7.859396,   0.253236,  -0.281520,  -1.162623, -76.500000, -628.500000, -484.500000,  -0.422557,  49.091380,  14.719907,   0.901896,   0.412406,   0.049887,   0.118039, 
27481,   0.035910,   7.289546,   6.457316, -46.974320,  -7.482737,  -7.915993,   0.248157,  -0.273552,  -1.160820, -79.500000, -625.500000, -484.500000,  -0.409224,  48.622148,  14.610791,   0.903686,   0.408738,   0.049118,   0.117333, 
27482,   0.085937,   7.209609,   6.434618, -47.745524,  -7.321002,  -7.947726,   0.252847,  -0.250923,  -1.158256, -78.000000, -618.000000, -484.500000,  -0.400055,  48.150484,  14.501895,   0.905482,   0.405055,   0.048323,   0.116642, 
27483,   0.064332,   7.062944,   6.542356, -48.982364,  -7.418122,  -8.363413,   0.249778,  -0.252189,  -1.153395, -79.500000, -618.000000, -483.000000,  -0.397025,  47.662924,  14.391932,   0.907319,   0.401245,   0.047466,   0.115967, 
27484,   0.079847,   7.007172,   6.628599, -50.279940,  -7.531481,  -8.501562,   0.255216,  -0.255721,  -1.154620, -76.500000, -619.500000, -483.000000,  -0.393024,  47.157600,  14.279467,   0.909188,   0.397279,   0.046595,   0.115268, 
27485,   0.063856,   6.872371,   6.699796, -51.741164,  -7.734632,  -8.878090,   0.262788,  -0.235447,  -1.162033, -73.500000, -613.500000, -486.000000,  -0.388588,  46.632144,  14.163700,   0.911131,   0.393153,   0.045705,   0.114546, 
27486,   0.087757,   6.761138,   6.721736, -53.366440,  -8.035452,  -9.292972,   0.252817,  -0.215891,  -1.153312, -79.500000, -606.000000, -484.500000,  -0.386263,  46.089680,  14.043447,   0.913104,   0.388881,   0.044773,   0.113795, 
27487,   0.133740,   6.673951,   6.792838, -55.403556,  -8.336409,  -9.921264,   0.254423,  -0.197334,  -1.155540, -79.500000, -600.000000, -486.000000,  -0.390215,  45.529560,  13.917626,   0.915107,   0.384461,   0.043762,   0.113020, 
27488,   0.047996,   6.632749,   6.891319, -57.638744,  -8.662683, -10.369425,   0.257646,  -0.198060,  -1.174591, -78.000000, -601.500000, -492.000000,  -0.380703,  44.943456,  13.785058,   0.917205,   0.379820,   0.042820,   0.112151, 
27489,   0.071779,   6.614884,   6.913320, -59.554736,  -8.847507, -10.846370,   0.260153,  -0.207657,  -1.194798, -76.500000, -606.000000, -498.000000,  -0.376879,  44.343888,  13.647209,   0.919298,   0.375055,   0.041812,   0.111253, 
27490,  -0.030233,   6.584915,   7.045326, -61.032476,  -8.979316, -11.195702,   0.261790,  -0.183488,  -1.177720, -76.500000, -597.000000, -493.500000,  -0.356057,  43.727656,  13.505555,   0.921457,   0.370141,   0.040923,   0.110272, 
27491,   0.046969,   6.511777,   7.120213, -62.354208,  -8.960060, -11.505820,   0.261060,  -0.154519,  -1.164279, -78.000000, -586.500000, -490.500000,  -0.348671,  43.102712,  13.360887,   0.923593,   0.365150,   0.039919,   0.109303, 
27492,   0.094193,   6.468827,   7.233848, -63.461840,  -8.994530, -11.788426,   0.265889,  -0.136689,  -1.185558, -76.500000, -582.000000, -498.000000,  -0.332978,  42.460108,  13.213753,   0.925778,   0.360003,   0.038971,   0.108288, 
27493,   0.098006,   6.486338,   7.341888, -63.916592,  -8.985453, -11.958632,   0.266573,  -0.133431,  -1.203708, -76.500000, -582.000000, -504.000000,  -0.327133,  41.818560,  13.064536,   0.927922,   0.354858,   0.037949,   0.107278, 
27494,   0.075933,   6.438201,   7.535854, -63.769432,  -8.897749, -12.138213,   0.265793,  -0.112882,  -1.219224, -78.000000, -576.000000, -510.000000,  -0.320959,  41.171072,  12.914378,   0.930058,   0.349654,   0.036934,   0.106253, 
27495,   0.166999,   6.362682,   7.589596, -62.875648,  -8.865365, -12.362771,   0.264361,  -0.089979,  -1.197285, -79.500000, -567.000000, -504.000000,  -0.328549,  40.531324,  12.763370,   0.932141,   0.344514,   0.035825,   0.105254, 
27496,   0.082482,   6.376334,   7.776779, -61.714808,  -8.826137, -12.480797,   0.262914,  -0.069882,  -1.184998, -81.000000, -559.500000, -501.000000,  -0.318290,  39.897440,  12.610523,   0.934173,   0.339389,   0.034873,   0.104173, 
27497,   0.136638,   6.233587,   7.801741, -59.955128,  -8.856478, -12.791696,   0.266683,  -0.062551,  -1.198357, -79.500000, -558.000000, -505.500000,  -0.313255,  39.280848,  12.456651,   0.936132,   0.334401,   0.033905,   0.103089, 
27498,   0.056510,   6.159127,   7.977356, -58.248836,  -8.901039, -13.202067,   0.278976,  -0.054681,  -1.208151, -73.500000, -556.500000, -508.500000,  -0.306349,  38.672500,  12.299991,   0.938020,   0.329459,   0.032962,   0.101963, 
27499,   0.080743,   6.036632,   8.016600, -56.427604,  -9.189009, -13.611631,   0.278212,  -0.031326,  -1.214014, -75.000000, -549.000000, -511.500000,  -0.311309,  38.077796,  12.138942,   0.939867,   0.324639,   0.031936,   0.100827, 
27500,   0.107442,   5.951577,   7.901528, -55.259664,  -9.346898, -14.004807,   0.273630,  -0.023721,  -1.235476, -78.000000, -547.500000, -519.000000,  -0.303983,  37.512364,  11.972112,   0.941594,   0.320033,   0.031032,   0.099591, 
27501,  -0.079773,   5.976334,   8.060806, -54.135980,  -9.447417, -14.409053,   0.275048,  -0.008786,  -1.242819, -78.000000, -543.000000, -522.000000,  -0.279340,  36.952376,  11.801421,   0.943305,   0.315453,   0.030278,   0.098269, 
27502,  -0.083425,   5.988971,   7.981968, -52.274524,  -9.371975, -14.475203,   0.270172,   0.005609,  -1.226248, -81.000000, -537.000000, -517.500000,  -0.253610,  36.427608,  11.629315,   0.944906,   0.311157,   0.029573,   0.096919, 
27503,  -0.254059,   5.970345,   8.165733, -50.319588,  -9.082557, -14.404044,   0.258768,   0.007424,  -1.219837, -87.000000, -535.500000, -516.000000,  -0.211750,  35.924956,  11.457598,   0.946413,   0.307017,   0.029033,   0.095517, 
27504,  -0.178689,   6.014326,   8.112947, -47.873336,  -8.866507, -14.154717,   0.266356,   0.030504,  -1.217598, -84.000000, -528.000000, -516.000000,  -0.168520,  35.453552,  11.288579,   0.947834,   0.303132,   0.028551,   0.094125, 
27505,  -0.234302,   5.884759,   8.069035, -45.685856,  -8.458529, -13.793626,   0.270860,   0.049513,  -1.220149, -82.500000, -522.000000, -517.500000,  -0.122098,  35.010272,  11.123613,   0.949150,   0.299467,   0.028140,   0.092748, 
27506,  -0.292549,   5.881790,   8.168140, -43.843752,  -8.049865, -13.453731,   0.264893,   0.047795,  -1.214964, -85.500000, -522.000000, -516.000000,  -0.072809,  34.586064,  10.964164,   0.950379,   0.295946,   0.027793,   0.091400, 
27507,  -0.147375,   5.731194,   8.155151, -42.535760,  -7.589636, -12.934111,   0.254547,   0.060110,  -1.216473, -91.500000, -517.500000, -517.500000,  -0.040310,  34.181824,  10.810785,   0.951546,   0.292603,   0.027349,   0.090141, 
27508,   0.066734,   5.495651,   8.266029, -41.182636,  -7.418956, -12.577724,   0.260856,   0.063457,  -1.230733, -88.500000, -517.500000, -522.000000,  -0.027386,  33.764280,  10.662532,   0.952738,   0.289162,   0.026754,   0.088976, 
27509,   0.583461,   5.366313,   8.615367, -39.959336,  -7.614721, -13.202073,   0.272465,   0.068069,  -1.222377, -82.500000, -516.000000, -519.000000,  -0.093278,  33.336438,  10.514122,   0.953893,   0.285682,   0.025502,   0.088003, 
27510,   0.621593,   5.274216,   8.907393, -34.404664,  -8.559389, -14.526926,   0.270438,   0.074496,  -1.235088, -84.000000, -514.500000, -523.500000,  -0.086332,  32.963894,  10.353613,   0.954939,   0.282609,   0.024878,   0.086731, 
27511,   0.611006,   4.817990,   8.520773, -32.415622,  -9.535323, -16.616863,   0.268412,   0.080924,  -1.247799, -85.500000, -513.000000, -528.000000,  -0.081531,  32.635280,  10.174465,   0.955891,   0.279907,   0.024232,   0.085297, 
27512,   0.370339,   4.629662,   8.347965, -33.389354, -10.755749, -18.368588,   0.267151,   0.104642,  -1.230397, -87.000000, -504.000000, -523.500000,  -0.103495,  32.274868,   9.972361,   0.956926,   0.276961,   0.023292,   0.083739, 
27513,   0.402570,   4.677624,   8.190991, -36.601740, -11.402228, -20.029376,   0.262635,   0.123473,  -1.213249, -90.000000, -496.500000, -519.000000,  -0.127273,  31.904764,   9.749984,   0.957959,   0.273927,   0.022291,   0.082011, 
27514,   0.257742,   4.692107,   8.344546, -39.008540, -12.182058, -21.503798,   0.263678,   0.131167,  -1.230822, -90.000000, -495.000000, -525.000000,  -0.172912,  31.478034,   9.511518,   0.959120,   0.270431,   0.021041,   0.080204, 
27515,   0.143142,   4.923656,   8.329096, -40.498696, -12.526776, -22.520406,   0.267431,   0.135691,  -1.253833, -88.500000, -495.000000, -532.500000,  -0.195979,  31.063382,   9.258709,   0.960268,   0.267021,   0.019968,   0.078216, 
27516,  -0.133719,   4.932426,   8.488676, -41.010688, -12.700037, -23.198284,   0.260374,   0.158506,  -1.235784, -93.000000, -486.000000, -528.000000,  -0.180985,  30.642648,   8.997940,   0.961416,   0.263526,   0.019207,   0.076066, 
27517,  -0.107903,   5.047006,   8.324357, -40.882692, -12.368387, -23.035296,   0.258022,   0.166111,  -1.229767, -94.500000, -483.000000, -526.500000,  -0.152007,  30.253076,   8.734560,   0.962484,   0.260281,   0.018593,   0.073853, 
27518,  -0.381263,   4.872473,   8.502005, -40.966848, -12.073914, -22.892710,   0.257476,   0.158054,  -1.235460, -94.500000, -486.000000, -528.000000,  -0.093185,  29.849338,   8.474622,   0.963589,   0.256897,   0.018245,   0.071602, 
27519,  -0.063525,   4.802475,   8.165766, -41.985384, -11.803932, -22.741516,   0.255108,   0.162853,  -1.239096, -96.000000, -484.500000, -529.500000,  -0.068703,  29.452424,   8.217463,   0.964637,   0.253584,   0.017634,   0.069446, 
27520,  -0.148881,   4.730667,   8.550328, -43.396908, -11.578203, -22.918412,   0.259611,   0.181861,  -1.241647, -94.500000, -478.500000, -531.000000,  -0.052757,  29.029624,   7.961606,   0.965703,   0.250047,   0.016954,   0.067319, 
27521,   0.136506,   4.865626,   8.407498, -43.089464, -11.473523, -22.991492,   0.267745,   0.212998,  -1.233715, -91.500000, -468.000000, -529.500000,  -0.047445,  28.617958,   7.704262,   0.966743,   0.246609,   0.016202,   0.065197, 
27522,  -0.161736,   4.900610,   8.675594, -42.810772, -11.092000, -23.059968,   0.272949,   0.238070,  -1.244764, -90.000000, -460.500000, -534.000000,  -0.031075,  28.214462,   7.448182,   0.967767,   0.243234,   0.015568,   0.063057, 
27523,  -0.174439,   5.060323,   8.617182, -41.399956, -10.718022, -22.350250,   0.275130,   0.229651,  -1.246243, -88.500000, -463.500000, -534.000000,   0.008374,  27.840702,   7.195634,   0.968699,   0.240089,   0.015167,   0.060890, 
27524,  -0.375924,   5.071954,   8.521852, -40.182964,  -9.914942, -21.313032,   0.271719,   0.226756,  -1.232307, -90.000000, -463.500000, -529.500000,   0.058251,  27.498074,   6.954355,   0.969540,   0.237195,   0.014907,   0.058790, 
27525,  -0.437514,   4.992151,   8.670060, -39.086260,  -9.047193, -19.858252,   0.260673,   0.233006,  -1.225318, -96.000000, -460.500000, -528.000000,   0.127476,  27.163910,   6.728400,   0.970340,   0.234359,   0.014859,   0.056778, 
27526,  -0.361232,   4.910880,   8.671753, -37.509448,  -8.233190, -18.259888,   0.258663,   0.242240,  -1.228377, -97.500000, -457.500000, -529.500000,   0.198718,  26.839300,   6.519096,   0.971112,   0.231602,   0.014879,   0.054903, 
27527,  -0.141948,   4.717828,   8.731091, -36.309904,  -7.401745, -16.900350,   0.253771,   0.253829,  -1.221459, -100.500000, -453.000000, -528.000000,   0.237818,  26.519418,   6.327428,   0.971843,   0.228894,   0.014674,   0.053240, 
27528,  -0.104933,   4.627148,   8.793274, -35.181088,  -6.884657, -16.165089,   0.252633,   0.269942,  -1.237552, -102.000000, -448.500000, -534.000000,   0.265840,  26.193490,   6.147466,   0.972567,   0.226137,   0.014405,   0.051698, 
27529,  -0.106432,   4.568063,   8.792043, -34.164560,  -6.429504, -15.414757,   0.257103,   0.283337,  -1.259409, -100.500000, -445.500000, -541.500000,   0.281913,  25.882020,   5.976459,   0.973258,   0.223507,   0.014068,   0.050254, 
27530,  -0.373271,   4.724407,   8.874553, -32.718426,  -5.930258, -14.545769,   0.249484,   0.295289,  -1.256704, -105.000000, -441.000000, -541.500000,   0.335503,  25.592618,   5.814120,   0.973903,   0.221047,   0.014083,   0.048806, 
27531,  -0.461082,   4.690095,   8.768826, -31.160474,  -5.340175, -13.256195,   0.249705,   0.304523,  -1.232284, -105.000000, -436.500000, -534.000000,   0.400392,  25.326878,   5.664016,   0.974497,   0.218782,   0.014235,   0.047439, 
27532,  -0.614317,   4.649853,   8.816050, -29.997060,  -4.695605, -11.926485,   0.264537,   0.308410,  -1.242979, -97.500000, -436.500000, -537.000000,   0.481180,  25.075974,   5.529105,   0.975020,   0.216627,   0.014564,   0.046169, 
27533,  -0.503493,   4.348496,   8.881589, -29.134358,  -4.095728, -10.774941,   0.268681,   0.322982,  -1.246108, -96.000000, -432.000000, -538.500000,   0.553063,  24.820688,   5.409085,   0.975539,   0.214437,   0.014848,   0.045044, 
27534,  -0.135588,   4.092084,   9.003960, -28.626082,  -3.817759, -10.111683,   0.266329,   0.330587,  -1.240091, -97.500000, -429.000000, -537.000000,   0.573842,  24.531112,   5.298469,   0.976116,   0.211976,   0.014706,   0.044100, 
27535,   0.234723,   3.987122,   9.029074, -28.650274,  -3.639201,  -9.995638,   0.263790,   0.334571,  -1.239190, -99.000000, -427.500000, -537.000000,   0.508980,  24.252434,   5.192601,   0.976669,   0.209641,   0.013853,   0.043353, 
27536,   0.486347,   3.684591,   9.100973, -28.952896,  -3.943788, -10.552670,   0.252198,   0.332765,  -1.237894, -105.000000, -427.500000, -537.000000,   0.439482,  23.927736,   5.083415,   0.977309,   0.206915,   0.012940,   0.042587, 
27537,   0.880558,   3.957299,   9.040950, -29.640508,  -4.233569, -11.870834,   0.240777,   0.331774,  -1.241136, -111.000000, -427.500000, -538.500000,   0.445033,  23.635186,   4.964419,   0.977867,   0.204428,   0.012666,   0.041594, 
27538,   0.685209,   3.595632,   9.156690, -30.484910,  -4.754482, -13.229645,   0.249675,   0.339556,  -1.227340, -106.500000, -424.500000, -534.000000,   0.451413,  23.334246,   4.831652,   0.978442,   0.201870,   0.012377,   0.040482, 
27539,   1.186938,   3.938765,   9.124074, -31.062734,  -5.231335, -14.549924,   0.252948,   0.347249,  -1.217434, -105.000000, -421.500000, -531.000000,   0.458137,  23.026382,   4.684888,   0.979034,   0.199254,   0.012071,   0.039249, 
27540,   0.925289,   3.669108,   9.160891, -32.087402,  -5.779505, -16.102669,   0.260708,   0.371144,  -1.219732, -102.000000, -414.000000, -532.500000,   0.464909,  22.711186,   4.522332,   0.979645,   0.196577,   0.011742,   0.037882, 
27541,   1.388328,   3.699574,   9.246396, -33.069684,  -6.436124, -17.970178,   0.261783,   0.384451,  -1.218000, -102.000000, -409.500000, -532.500000,   0.471602,  22.385100,   4.341814,   0.980270,   0.193807,   0.011386,   0.036360, 
27542,   1.435587,   3.840525,   9.295238, -33.055020,  -7.024251, -19.912522,   0.247309,   0.385000,  -1.206727, -109.500000, -408.000000, -529.500000,   0.478725,  22.053888,   4.141314,   0.980880,   0.190988,   0.011008,   0.034664, 
27543,   1.303150,   3.318805,   9.225435, -33.651056,  -7.782030, -22.256236,   0.243135,   0.405460,  -1.198654, -112.500000, -400.500000, -528.000000,   0.486321,  21.720440,   3.918165,   0.981486,   0.188150,   0.010605,   0.032772, 
27544,   1.331879,   3.511404,   9.187422, -34.640380,  -8.278362, -24.094868,   0.246937,   0.418403,  -1.192708, -111.000000, -396.000000, -526.500000,   0.494518,  21.377972,   3.673071,   0.982113,   0.185236,   0.010182,   0.030690, 
27545,   1.017248,   3.632373,   9.330338, -35.405296,  -8.595410, -25.562320,   0.249835,   0.418855,  -1.193032, -109.500000, -396.000000, -526.500000,   0.503308,  21.025822,   3.411419,   0.982754,   0.182238,   0.009747,   0.028463, 
27546,   0.846914,   3.461755,   9.296492, -35.611848,  -8.776860, -26.351084,   0.246905,   0.412790,  -1.212013, -111.000000, -399.000000, -532.500000,   0.512349,  20.669816,   3.138152,   0.983373,   0.179203,   0.009308,   0.026134, 
27547,   0.495730,   3.397138,   9.219471, -35.971692,  -8.815223, -27.060668,   0.251220,   0.428177,  -1.219680, -109.500000, -394.500000, -535.500000,   0.438642,  20.287162,   2.857098,   0.984036,   0.175959,   0.008157,   0.023865, 
27548,   0.261593,   3.245529,   9.271327, -36.390352,  -8.637415, -27.270990,   0.263920,   0.448902,  -1.199938, -103.500000, -387.000000, -529.500000,   0.391448,  19.915198,   2.572431,   0.984659,   0.172792,   0.007244,   0.021517, 
27549,   0.225324,   3.316939,   9.259302, -36.747820,  -8.429605, -27.384376,   0.253216,   0.456782,  -1.202024, -109.500000, -384.000000, -531.000000,   0.369483,  19.544458,   2.286774,   0.985261,   0.169627,   0.006563,   0.019117, 
27550,   0.000477,   2.963459,   9.308730, -36.928788,  -8.442387, -27.647682,   0.239272,   0.462581,  -1.194712, -117.000000, -381.000000, -529.500000,   0.374360,  19.156076,   1.998857,   0.985864,   0.166299,   0.006122,   0.016654, 
27551,  -0.268623,   3.074188,   9.245488, -36.929032,  -8.353816, -28.112208,   0.246161,   0.479597,  -1.183975, -114.000000, -375.000000, -526.500000,   0.395089,  18.779768,   1.708810,   0.986449,   0.163074,   0.005833,   0.014148, 
27552,  -0.103836,   2.889826,   9.093082, -37.697432,  -8.086929, -28.067578,   0.249588,   0.485299,  -1.188259, -112.500000, -373.500000, -528.000000,   0.400985,  18.400202,   1.417030,   0.987040,   0.159823,   0.005430,   0.011646, 
27553,  -0.159465,   3.033667,   9.330210, -38.627360,  -7.921754, -27.883422,   0.241969,   0.497250,  -1.185555, -117.000000, -369.000000, -528.000000,   0.428932,  18.009082,   1.126132,   0.987587,   0.156461,   0.005234,   0.009119, 
27554,  -0.013077,   3.151371,   9.341215, -38.337212,  -7.557725, -27.499534,   0.241377,   0.521420,  -1.195956, -118.500000, -361.500000, -532.500000,   0.442052,  17.641614,   0.839586,   0.988090,   0.153303,   0.004935,   0.006648, 
27555,  -0.018637,   2.964067,   9.447145, -37.485092,  -7.312221, -27.233396,   0.244805,   0.527121,  -1.200240, -117.000000, -360.000000, -534.000000,   0.451073,  17.269148,   0.556570,   0.988600,   0.150102,   0.004620,   0.004210, 
27556,  -0.003406,   2.913234,   9.315158, -36.899564,  -7.141273, -27.171694,   0.244821,   0.529928,  -1.190587, -117.000000, -358.500000, -531.000000,   0.461079,  16.911202,   0.275167,   0.989090,   0.147027,   0.004332,   0.001783, 
27557,  -0.158290,   2.822857,   9.421353, -37.115308,  -6.940591, -27.068000,   0.242469,   0.537533,  -1.184571, -118.500000, -355.500000, -529.500000,   0.474978,  16.539814,  -0.004189,   0.989562,   0.143830,   0.004096,  -0.000632, 
27558,  -0.175112,   2.807998,   9.398200, -37.023596,  -6.633188, -27.024784,   0.243732,   0.554461,  -1.177723, -118.500000, -349.500000, -528.000000,   0.486050,  16.185287,  -0.281700,   0.989981,   0.140776,   0.003853,  -0.003030, 
27559,  -0.004728,   2.858460,   9.430916, -36.729140,  -6.393174, -26.535716,   0.232686,   0.560711,  -1.170735, -124.500000, -346.500000, -526.500000,   0.486437,  15.826256,  -0.556126,   0.990405,   0.137682,   0.003536,  -0.005391, 
27560,  -0.020391,   2.801854,   9.504398, -35.748640,  -6.171977, -26.715348,   0.227077,   0.563429,  -1.164972, -127.500000, -345.000000, -525.000000,   0.486729,  15.482689,  -0.828857,   0.990811,   0.134722,   0.003234,  -0.007739, 
27561,  -0.026382,   2.722427,   9.471054, -35.138448,  -6.145385, -26.846434,   0.230880,   0.576373,  -1.159026, -126.000000, -340.500000, -523.500000,   0.481224,  15.143631,  -1.102784,   0.991178,   0.131795,   0.002894,  -0.010092, 
27562,   0.065751,   2.685871,   9.402864, -34.930680,  -5.933079, -26.597658,   0.227811,   0.575107,  -1.154164, -127.500000, -340.500000, -522.000000,   0.476783,  14.810250,  -1.376525,   0.991536,   0.128918,   0.002577,  -0.012447, 
27563,   0.006969,   2.667992,   9.576183, -34.638900,  -5.774045, -26.679616,   0.232330,   0.596921,  -1.147063, -126.000000, -333.000000, -520.500000,   0.472943,  14.483458,  -1.648345,   0.991861,   0.126095,   0.002280,  -0.014788, 
27564,   0.054968,   2.519464,   9.616309, -33.725548,  -5.679028, -26.823554,   0.235945,   0.606244,  -1.146232, -124.500000, -330.000000, -520.500000,   0.454397,  14.153129,  -1.921229,   0.992188,   0.123238,   0.001869,  -0.017125, 
27565,   0.043228,   2.613650,   9.625728, -32.453820,  -5.679414, -27.295946,   0.222481,   0.608873,  -1.171837, -132.000000, -330.000000, -529.500000,   0.443654,  13.847977,  -2.196889,   0.992464,   0.120597,   0.001531,  -0.019496, 
27566,   0.125102,   2.571076,   9.673523, -30.708634,  -5.502165, -27.413784,   0.221376,   0.630599,  -1.168626, -133.500000, -322.500000, -529.500000,   0.430844,  13.555994,  -2.474724,   0.992715,   0.118069,   0.001183,  -0.021885, 
27567,   0.083024,   2.499986,   9.649031, -29.115388,  -5.500151, -27.851650,   0.227172,   0.631502,  -1.169274, -130.500000, -322.500000, -529.500000,   0.426803,  13.279647,  -2.756096,   0.992951,   0.115677,   0.000917,  -0.024317, 
27568,   0.037522,   2.253406,   9.728130, -27.856262,  -5.513129, -28.278962,   0.232984,   0.635212,  -1.160269, -127.500000, -321.000000, -526.500000,   0.418860,  13.003900,  -3.040572,   0.993160,   0.113288,   0.000626,  -0.026772, 
27569,   0.093309,   2.225742,   9.653117, -26.418766,  -5.529302, -29.253614,   0.230649,   0.645623,  -1.144600, -129.000000, -316.500000, -522.000000,   0.400674,  12.745063,  -3.332064,   0.993346,   0.111041,   0.000246,  -0.029280, 
27570,   0.139633,   2.306748,   9.738369, -25.071848,  -5.654556, -30.339502,   0.228280,   0.650422,  -1.148236, -130.500000, -315.000000, -523.500000,   0.378810,  12.501657,  -3.634658,   0.993497,   0.108925,  -0.000168,  -0.031882, 
27571,   0.085222,   2.278671,   9.737551, -23.074740,  -5.873391, -31.651978,   0.229527,   0.664543,  -1.151041, -130.500000, -310.500000, -525.000000,   0.362984,  12.270276,  -3.949185,   0.993624,   0.106914,  -0.000534,  -0.034595, 
27572,  -0.022310,   2.133738,   9.701635, -21.661876,  -5.985893, -32.727242,   0.217405,   0.657487,  -1.145785, -136.500000, -312.000000, -523.500000,   0.353610,  12.057292,  -4.276290,   0.993724,   0.105062,  -0.000851,  -0.037425, 
27573,  -0.055718,   2.190009,   9.702865, -20.209846,  -5.985461, -33.734320,   0.212172,   0.667447,  -1.129792, -139.500000, -307.500000, -519.000000,   0.344602,  11.861357,  -4.613164,   0.993777,   0.103356,  -0.001169,  -0.040339, 
27574,   0.077097,   2.149814,   9.737796, -18.808938,  -6.117780, -34.630212,   0.220819,   0.701027,  -1.135473, -136.500000, -297.000000, -522.000000,   0.331153,  11.683166,  -4.959730,   0.993810,   0.101802,  -0.001531,  -0.043335, 
27575,   0.044480,   2.124737,   9.629536, -17.476104,  -6.108115, -35.624896,   0.218076,   0.698584,  -1.149339, -138.000000, -298.500000, -526.500000,   0.313825,  11.510956,  -5.314983,   0.993835,   0.100297,  -0.001927,  -0.046404, 
27576,   0.206414,   1.913124,   9.625287, -17.012968,  -6.364098, -36.773132,   0.208665,   0.688358,  -1.149522, -142.500000, -301.500000, -526.500000,   0.292688,  11.336342,  -5.681776,   0.993852,   0.098769,  -0.002356,  -0.049571, 
27577,  -0.042690,   2.080751,   9.640069, -16.735497,  -6.281333, -37.865176,   0.212639,   0.702116,  -1.148113, -141.000000, -297.000000, -526.500000,   0.285562,  11.175491,  -6.059354,   0.993809,   0.097361,  -0.002669,  -0.052842, 
27578,  -0.158252,   2.004354,   9.663353, -16.212456,  -6.417637, -38.192552,   0.210816,   0.714971,  -1.146057, -142.500000, -292.500000, -526.500000,   0.300102,  11.022491,  -6.444072,   0.993745,   0.096031,  -0.002795,  -0.056194, 
27579,  -0.033952,   1.914666,   9.638250, -15.686934,  -6.295771, -38.480496,   0.211191,   0.722213,  -1.135827, -142.500000, -289.500000, -523.500000,   0.297510,  10.874253,  -6.831877,   0.993677,   0.094735,  -0.003065,  -0.059559, 
27580,   0.030352,   1.983470,   9.678318, -14.784336,  -6.209099, -38.521232,   0.211378,   0.725834,  -1.130711, -142.500000, -288.000000, -522.000000,   0.304759,  10.737975,  -7.221775,   0.993578,   0.093546,  -0.003250,  -0.062949, 
27581,  -0.063087,   1.884555,   9.686997, -13.949917,  -6.068852, -38.553060,   0.210444,   0.748375,  -1.132038, -144.000000, -280.500000, -523.500000,   0.317537,  10.601370,  -7.611381,   0.993457,   0.092356,  -0.003378,  -0.066340, 
27582,  -0.117465,   1.887790,   9.654724, -13.271245,  -5.997965, -38.300644,   0.203572,   0.734165,  -1.133122, -147.000000, -285.000000, -523.500000,   0.330075,  10.479169,  -7.998951,   0.993325,   0.091293,  -0.003507,  -0.069714, 
27583,  -0.085155,   1.872307,   9.648463, -12.763474,  -5.819273, -37.917644,   0.200503,   0.732899,  -1.128261, -148.500000, -285.000000, -522.000000,   0.337390,  10.359116,  -8.383563,   0.993194,   0.090246,  -0.003674,  -0.073058, 
27584,  -0.109087,   1.777824,   9.664743, -12.359097,  -5.758437, -38.016544,   0.196313,   0.750553,  -1.129840, -151.500000, -279.000000, -523.500000,   0.351611,  10.237363,  -8.766841,   0.993030,   0.089187,  -0.003771,  -0.076394, 
27585,  -0.273667,   1.835781,   9.681263, -11.851048,  -5.617281, -38.017140,   0.198493,   0.742133,  -1.131319, -150.000000, -282.000000, -523.500000,   0.371718,  10.124523,  -9.149422,   0.992852,   0.088210,  -0.003816,  -0.079729, 
27586,  -0.188244,   1.711239,   9.734339, -11.112901,  -5.572066, -37.538248,   0.197013,   0.756617,  -1.138338, -151.500000, -277.500000, -526.500000,   0.393871,  10.013602,  -9.530296,   0.992674,   0.087253,  -0.003837,  -0.083050, 
27587,  -0.139995,   1.824639,   9.661595, -10.460364,  -5.536618, -37.269344,   0.183957,   0.772102,  -1.134408, -159.000000, -271.500000, -526.500000,   0.410632,   9.920620,  -9.906958,   0.992478,   0.086448,  -0.003909,  -0.086329, 
27588,  -0.057332,   1.637453,   9.723461,  -9.942657,  -5.261282, -37.119504,   0.180171,   0.761965,  -1.130701, -160.500000, -274.500000, -525.000000,   0.432718,   9.812843, -10.281831,   0.992258,   0.085518,  -0.003916,  -0.089595, 
27589,  -0.177832,   1.622002,   9.714880,  -9.479081,  -5.316941, -37.359068,   0.186700,   0.774545,  -1.120541, -157.500000, -270.000000, -522.000000,   0.455376,   9.711131, -10.656849,   0.992025,   0.084641,  -0.003917,  -0.092861, 
27590,  -0.051474,   1.453740,   9.674397,  -9.298622,  -5.299421, -37.330656,   0.177276,   0.802158,  -1.106128, -163.500000, -259.500000, -519.000000,   0.462581,   9.603481, -11.032908,   0.991797,   0.083703,  -0.004042,  -0.096126, 
27591,  -0.046049,   1.571913,   9.669797,  -9.426755,  -5.310375, -37.793520,   0.174378,   0.801707,  -1.105804, -165.000000, -259.500000, -519.000000,   0.465513,   9.503120, -11.412276,   0.991545,   0.082823,  -0.004207,  -0.099414, 
27592,  -0.100662,   1.613631,   9.599778,  -9.502747,  -5.231686, -38.097564,   0.176200,   0.788852,  -1.107861, -163.500000, -264.000000, -519.000000,   0.477859,   9.400505, -11.794680,   0.991268,   0.081931,  -0.004284,  -0.102734, 
27593,  -0.055019,   1.464979,   9.676147,  -9.631392,  -5.222722, -38.142336,   0.164421,   0.783425,  -1.111680, -169.500000, -265.500000, -520.500000,   0.497024,   9.293828, -12.178515,   0.990991,   0.081011,  -0.004294,  -0.106071, 
27594,  -0.193737,   1.418839,   9.685706,  -9.690262,  -5.107246, -38.201856,   0.164187,   0.812030,  -1.121503, -171.000000, -256.500000, -525.000000,   0.511192,   9.189955, -12.562896,   0.990712,   0.080113,  -0.004345,  -0.109410, 
27595,  -0.069490,   1.548393,   9.657802,  -9.372311,  -5.099506, -38.285244,   0.165075,   0.821716,  -1.124885, -171.000000, -253.500000, -526.500000,   0.523706,   9.091013, -12.947981,   0.990398,   0.079254,  -0.004408,  -0.112750, 
27596,  -0.064742,   1.599064,   9.728101,  -9.037386,  -5.091185, -38.246592,   0.162226,   0.829684,  -1.095604, -172.500000, -249.000000, -517.500000,   0.538699,   8.991574, -13.333187,   0.990074,   0.078394,  -0.004444,  -0.116092, 
27597,  -0.151288,   1.464617,   9.762775,  -8.658445,  -4.976293, -38.222968,   0.156943,   0.831224,  -1.108569, -175.500000, -249.000000, -522.000000,   0.560548,   8.890697, -13.718128,   0.989751,   0.077531,  -0.004414,  -0.119437, 
27598,  -0.188827,   1.401179,   9.638518,  -8.073562,  -4.870584, -38.162432,   0.147891,   0.825434,  -1.108174, -180.000000, -250.500000, -522.000000,   0.579259,   8.797916, -14.103209,   0.989417,   0.076735,  -0.004413,  -0.122780, 
27599,  -0.313501,   1.502503,   9.762772,  -8.047175,  -4.725911, -37.689608,   0.141582,   0.822088,  -1.093913, -183.000000, -250.500000, -517.500000,   0.613043,   8.709275, -14.483115,   0.989048,   0.075991,  -0.004279,  -0.126084, 
27600,  -0.210958,   1.434896,   9.668473,  -7.910339,  -4.706168, -37.243904,   0.130348,   0.824717,  -1.092040, -189.000000, -249.000000, -517.500000,   0.642489,   8.622408, -14.859833,   0.988682,   0.075260,  -0.004176,  -0.129357, 
27601,  -0.187554,   1.443070,   9.671013,  -7.814078,  -4.491940, -37.056276,   0.128184,   0.835943,  -1.080909, -190.500000, -244.500000, -514.500000,   0.656560,   8.533754, -15.232160,   0.988324,   0.074499,  -0.004197,  -0.132583, 
27602,  -0.117593,   1.325709,   9.674537,  -7.862810,  -4.575242, -36.938384,   0.125644,   0.839927,  -1.080007, -192.000000, -243.000000, -514.500000,   0.668343,   8.436451, -15.604015,   0.987959,   0.073661,  -0.004222,  -0.135801, 
27603,  -0.023272,   1.369067,   9.703467,  -7.728051,  -4.410118, -36.670944,   0.125970,   0.838750,  -1.098735, -192.000000, -244.500000, -520.500000,   0.677153,   8.351296, -15.975204,   0.987552,   0.072922,  -0.004281,  -0.139007, 
27604,  -0.171888,   1.293748,   9.749127,  -7.693133,  -4.401767, -36.956644,   0.132092,   0.838475,  -1.118110, -189.000000, -246.000000, -526.500000,   0.692608,   8.256772, -16.344643,   0.987152,   0.072112,  -0.004266,  -0.142203, 
27605,  -0.103232,   1.218082,   9.719883,  -7.495191,  -4.377091, -37.068128,   0.133713,   0.859838,  -1.110685, -189.000000, -238.500000, -525.000000,   0.700896,   8.163804, -16.716316,   0.986749,   0.071309,  -0.004310,  -0.145414, 
27606,  -0.290396,   1.220745,   9.719341,  -7.554837,  -4.413015, -37.550988,   0.140242,   0.872419,  -1.100526, -186.000000, -234.000000, -522.000000,   0.720491,   8.068599, -17.091072,   0.986319,   0.070500,  -0.004251,  -0.148655, 
27607,  -0.221521,   1.137683,   9.677045,  -7.760212,  -4.380125, -37.784740,   0.131173,   0.863822,  -1.109784, -190.500000, -237.000000, -525.000000,   0.723540,   7.976227, -17.468972,   0.985869,   0.069694,  -0.004335,  -0.151910, 
27608,  -0.110948,   1.285730,   9.691347,  -7.766959,  -4.393025, -38.380712,   0.119752,   0.862831,  -1.113025, -196.500000, -237.000000, -526.500000,   0.720153,   7.883596, -17.851452,   0.985414,   0.068878,  -0.004471,  -0.155202, 
27609,  -0.046523,   0.961345,   9.741967,  -8.162243,  -4.512359, -39.479896,   0.120486,   0.874508,  -1.102218, -196.500000, -232.500000, -523.500000,   0.710412,   7.769562, -18.242486,   0.984961,   0.067870,  -0.004632,  -0.158565, 
27610,  -0.058001,   1.293990,   9.653453,  -8.496952,  -4.424354, -40.207260,   0.116700,   0.864371,  -1.098511, -198.000000, -235.500000, -522.000000,   0.696705,   7.677538, -18.642642,   0.984446,   0.067042,  -0.004857,  -0.161997, 
27611,   0.133331,   1.033425,   9.674899,  -8.486929,  -4.617457, -41.051860,   0.114022,   0.873154,  -1.073767, -199.500000, -231.000000, -514.500000,   0.686988,   7.570720, -19.052716,   0.983920,   0.066093,  -0.005026,  -0.165518, 
27612,  -0.167932,   1.290159,   9.693024,  -8.730604,  -4.473716, -42.245268,   0.106249,   0.887098,  -1.056873, -204.000000, -225.000000, -510.000000,   0.702556,   7.474415, -19.471698,   0.983371,   0.065272,  -0.004992,  -0.169129, 
27613,  -0.057140,   1.291831,   9.682506,  -8.656691,  -4.641509, -42.359604,   0.102400,   0.906380,  -1.067527, -207.000000, -219.000000, -514.500000,   0.711111,   7.378415, -19.896244,   0.982793,   0.064442,  -0.005015,  -0.172781, 
27614,  -0.247841,   1.137510,   9.756847,  -8.463821,  -4.530222, -42.351628,   0.090621,   0.900953,  -1.071346, -213.000000, -220.500000, -516.000000,   0.741533,   7.281743, -20.321954,   0.982188,   0.063641,  -0.004845,  -0.176450, 
27615,  -0.172470,   1.182848,   9.751211,  -8.337243,  -4.436722, -42.178392,   0.090417,   0.894526,  -1.086114, -213.000000, -223.500000, -520.500000,   0.756921,   7.191925, -20.747622,   0.981581,   0.062878,  -0.004808,  -0.180111, 
27616,  -0.308797,   1.269142,   9.720813,  -8.332623,  -4.331244, -42.037216,   0.095449,   0.918784,  -1.092625, -211.500000, -216.000000, -523.500000,   0.784680,   7.109517, -21.170932,   0.980963,   0.062199,  -0.004671,  -0.183756, 
27617,  -0.255462,   1.125276,   9.749373,  -8.122981,  -4.417596, -41.818868,   0.088936,   0.909010,  -1.093132, -214.500000, -219.000000, -523.500000,   0.809868,   7.015895, -21.591694,   0.980319,   0.061421,  -0.004531,  -0.187372, 
27618,  -0.236788,   1.025769,   9.655609,  -8.124620,  -4.101318, -41.821972,   0.092193,   0.913897,  -1.092879, -213.000000, -217.500000, -523.500000,   0.821468,   6.912587, -22.011084,   0.979675,   0.060540,  -0.004484,  -0.190968, 
27619,  -0.128723,   1.114272,   9.670638,  -8.446187,  -4.087259, -41.729532,   0.085884,   0.910550,  -1.078618, -216.000000, -217.500000, -519.000000,   0.839779,   6.821933, -22.431518,   0.979022,   0.059780,  -0.004396,  -0.194575, 
27620,  -0.074023,   1.084984,   9.659486,  -8.681967,  -4.124066, -41.882664,   0.080446,   0.914083,  -1.077393, -219.000000, -216.000000, -519.000000,   0.847010,   6.723225, -22.852454,   0.978337,   0.058932,  -0.004383,  -0.198175, 
27621,  -0.068933,   1.007581,   9.713504,  -8.573818,  -4.017262, -42.016884,   0.070272,   0.927212,  -1.083439, -225.000000, -211.500000, -522.000000,   0.845497,   6.616608, -23.273922,   0.977649,   0.058003,  -0.004425,  -0.201774, 
27622,  -0.040758,   0.934074,   9.670646,  -8.199734,  -4.007120, -41.991312,   0.060877,   0.919793,  -1.073970, -229.500000, -213.000000, -519.000000,   0.850264,   6.509432, -23.697242,   0.976957,   0.057082,  -0.004406,  -0.205392, 
27623,  -0.156553,   1.061795,   9.668625,  -8.787386,  -3.919364, -42.104532,   0.063979,   0.926672,  -1.059526, -228.000000, -210.000000, -514.500000,   0.858254,   6.407560, -24.119420,   0.976242,   0.056212,  -0.004363,  -0.208998, 
27624,  -0.234147,   1.069775,   9.712837,  -8.854328,  -3.791310, -41.832232,   0.065209,   0.937987,  -1.071984, -228.000000, -207.000000, -519.000000,   0.864383,   6.309135, -24.539250,   0.975507,   0.055368,  -0.004334,  -0.212578, 
27625,  -0.207341,   0.979851,   9.674092,  -8.855216,  -3.720215, -41.457720,   0.059038,   0.929842,  -1.081566, -231.000000, -210.000000, -522.000000,   0.876970,   6.208228, -24.956014,   0.974779,   0.054518,  -0.004238,  -0.216135, 
27626,  -0.244218,   1.004918,   9.867998,  -8.838634,  -3.597108, -40.954448,   0.060114,   0.943148,  -1.079833, -231.000000, -205.500000, -522.000000,   0.892044,   6.101625, -25.367730,   0.974057,   0.053626,  -0.004101,  -0.219649, 
27627,  -0.276673,   0.969932,   9.756783,  -8.580179,  -3.492447, -40.275744,   0.055206,   0.951931,  -1.082568, -234.000000, -202.500000, -523.500000,   0.910713,   6.009701, -25.775140,   0.973298,   0.052865,  -0.003954,  -0.223120, 
27628,  -0.126227,   0.874736,   9.776134,  -8.622975,  -3.355274, -39.560140,   0.051437,   0.944600,  -1.069209, -235.500000, -204.000000, -519.000000,   0.925327,   5.903972, -26.174792,   0.972561,   0.051983,  -0.003805,  -0.226523, 
27629,  -0.234987,   0.925428,   9.764734,  -8.553519,  -3.183610, -39.008044,   0.057949,   0.954374,  -1.068702, -232.500000, -201.000000, -519.000000,   0.938655,   5.803204, -26.568380,   0.971835,   0.051142,  -0.003669,  -0.229875, 
27630,  -0.113474,   0.908956,   9.778023,  -8.416639,  -3.154838, -38.536060,   0.043614,   0.950125,  -1.081272, -240.000000, -202.500000, -523.500000,   0.944362,   5.705565, -26.956372,   0.971094,   0.050314,  -0.003595,  -0.233169, 
27631,  -0.075297,   0.747164,   9.627704,  -7.925921,  -3.022316, -38.493496,   0.030199,   0.961174,  -1.077919, -247.500000, -198.000000, -523.500000,   0.938192,   5.599568, -27.342366,   0.970345,   0.049391,  -0.003598,  -0.236439, 
27632,  -0.063872,   0.774593,   9.788332,  -8.603141,  -2.896024, -38.455192,   0.024778,   0.967513,  -1.067041, -250.500000, -195.000000, -520.500000,   0.934819,   5.490309, -27.727840,   0.969590,   0.048447,  -0.003564,  -0.239703, 
27633,  -0.102496,   0.728308,   9.658176,  -8.276570,  -2.860906, -38.398756,   0.015946,   0.970957,  -1.042227, -255.000000, -192.000000, -513.000000,   0.933196,   5.384182, -28.113238,   0.968833,   0.047535,  -0.003516,  -0.242968, 
27634,  -0.230683,   0.895131,   9.840877,  -8.319965,  -2.868554, -38.173088,   0.019578,   0.983086,  -1.031743, -253.500000, -187.500000, -510.000000,   0.943712,   5.291950, -28.496088,   0.968036,   0.046765,  -0.003387,  -0.246206, 
27635,  -0.152812,   0.619184,   9.660680,  -8.637902,  -2.793836, -37.618280,   0.016492,   0.979013,  -1.036534, -255.000000, -189.000000, -511.500000,   0.952669,   5.174761, -28.875966,   0.967253,   0.045784,  -0.003212,  -0.249419, 
27636,  -0.144290,   0.826424,   9.738194,  -9.126440,  -2.603081, -37.063284,   0.015792,   0.972949,  -1.028037, -255.000000, -190.500000, -508.500000,   0.969093,   5.073983, -29.251350,   0.966474,   0.044959,  -0.003001,  -0.252597, 
27637,  -0.230779,   0.781880,   9.729259,  -9.263784,  -2.483755, -36.401256,   0.010696,   0.978110,  -1.035886, -258.000000, -189.000000, -511.500000,   0.985162,   4.970781, -29.618796,   0.965703,   0.044116,  -0.002779,  -0.255704, 
27638,  -0.264136,   0.711680,   9.736633,  -9.495538,  -2.327702, -35.556852,   0.002361,   0.981191,  -1.034337, -262.500000, -187.500000, -511.500000,   1.000852,   4.850341, -29.978858,   0.964927,   0.043127,  -0.002514,  -0.258743, 
27639,  -0.265464,   0.716012,   9.634528, -10.122710,  -2.261141, -34.996884,   0.010354,   0.976481,  -1.026811, -258.000000, -189.000000, -508.500000,   1.013182,   4.739014, -30.331372,   0.964165,   0.042211,  -0.002289,  -0.261716, 
27640,  -0.082426,   0.553055,   9.795127, -10.526183,  -2.159763, -34.486052,   0.004575,   0.978385,  -1.016510, -261.000000, -187.500000, -505.500000,   1.012820,   4.599993, -30.677586,   0.963430,   0.041035,  -0.002098,  -0.264633, 
27641,  -0.154582,   0.610104,   9.780464, -10.636637,  -1.988978, -34.188336,  -0.005599,   0.991514,  -1.022557, -267.000000, -183.000000, -508.500000,   1.009350,   4.477011, -31.021360,   0.962686,   0.039987,  -0.001963,  -0.267526, 
27642,   0.029741,   0.552643,   9.771764, -10.723030,  -2.033001, -34.137848,  -0.005769,   0.990700,  -1.018020, -267.000000, -183.000000, -507.000000,   1.001878,   4.342598, -31.363686,   0.961923,   0.038835,  -0.001828,  -0.270399, 
27643,  -0.310572,   0.534598,   9.730854, -11.175817,  -1.855825, -34.487808,  -0.003230,   0.986716,  -1.018921, -265.500000, -184.500000, -507.000000,   1.006680,   4.197602, -31.706440,   0.961160,   0.037625,  -0.001558,  -0.273280, 
27644,  -0.122396,   0.594234,   9.665021, -11.494210,  -1.843868, -34.029852,  -0.010148,   1.004732,  -1.024714, -270.000000, -178.500000, -510.000000,   1.001775,   4.062497, -32.048344,   0.960385,   0.036476,  -0.001386,  -0.276146, 
27645,  -0.233707,   0.343056,   9.606183, -12.309517,  -1.751789, -33.784808,  -0.006875,   1.012426,  -1.014808, -268.500000, -175.500000, -507.000000,   1.013945,   3.908825, -32.387634,   0.959614,   0.035215,  -0.001018,  -0.278995, 
27646,  -0.110360,   0.551498,   9.740030, -13.141609,  -1.651706, -33.722572,  -0.001780,   1.007264,  -1.006959, -265.500000, -177.000000, -504.000000,   1.011899,   3.752301, -32.724286,   0.958822,   0.033896,  -0.000754,  -0.281809, 
27647,  -0.187975,   0.397786,   9.628396, -13.775836,  -1.534849, -33.770996,  -0.009431,   1.013603,  -1.023559, -270.000000, -175.500000, -510.000000,   1.024444,   3.590514, -33.061490,   0.958028,   0.032572,  -0.000347,  -0.284632, 
27648,  -0.197576,   0.247207,   9.590453, -15.707840,  -1.512407, -33.730960,  -0.023237,   1.014604,  -1.040089, -277.500000, -175.500000, -516.000000,   1.035877,   3.398937, -33.398366,   0.957244,   0.030999,   0.000133,  -0.287451, 
27649,  -0.104955,   0.294144,   9.570518, -16.667276,  -1.343212, -34.130160,  -0.032803,   1.006370,  -1.026082, -282.000000, -177.000000, -511.500000,   1.037307,   3.192794, -33.738404,   0.956457,   0.029283,   0.000575,  -0.290296, 
27650,  -0.162168,   0.339658,   9.688158, -18.288902,  -1.325318, -34.843940,  -0.033161,   1.001935,  -1.026659, -282.000000, -178.500000, -511.500000,   1.041787,   2.991174, -34.084200,   0.955620,   0.027615,   0.001040,  -0.293178, 
27651,   0.080348,   0.174165,   9.812015, -17.333202,  -1.188618, -35.518516,  -0.039658,   0.994967,  -1.017514, -285.000000, -180.000000, -508.500000,   1.020942,   2.782515, -34.436564,   0.954766,   0.025826,   0.001320,  -0.296109, 
27652,   0.047319,   0.162477,   9.813530, -18.122056,  -1.162901, -36.066328,  -0.047430,   1.008911,  -1.000620, -289.500000, -174.000000, -504.000000,   1.008084,   2.571911, -34.795504,   0.953877,   0.024043,   0.001682,  -0.299092, 
27653,  -0.073404,   0.167824,   9.743587, -18.059824,  -1.105413, -36.978432,  -0.047243,   1.012532,  -0.995505, -289.500000, -172.500000, -502.500000,   0.997804,   2.364054, -35.161296,   0.952968,   0.022293,   0.002068,  -0.302133, 
27654,  -0.130275,   0.058408,   9.600269, -19.216108,  -0.882795, -37.457176,  -0.038891,   1.012258,  -0.987402, -285.000000, -172.500000, -499.500000,   0.994965,   2.134711, -35.533888,   0.952008,   0.020386,   0.002582,  -0.305220, 
27655,  -0.146227,   0.122626,   9.562817, -20.862300,  -0.880972, -37.843700,  -0.043253,   1.029097,  -0.984444, -288.000000, -166.500000, -499.500000,   0.989984,   1.906147, -35.910232,   0.951037,   0.018484,   0.003089,  -0.308338, 
27656,  -0.141840,   0.054841,   9.636769, -22.355792,  -0.665505, -38.131924,  -0.045622,   1.033895,  -0.988080, -289.500000, -165.000000, -501.000000,   0.988927,   1.652247, -36.289732,   0.950062,   0.016387,   0.003709,  -0.311483, 
27657,  -0.237201,   0.141912,   9.558480, -23.849442,  -0.449556, -38.325372,  -0.045605,   1.036702,  -0.978427, -289.500000, -163.500000, -498.000000,   0.997088,   1.395507, -36.671180,   0.949070,   0.014295,   0.004427,  -0.314640, 
27658,  -0.244892,   0.021405,   9.728043, -26.225374,  -0.354911, -38.282168,  -0.053224,   1.048654,  -0.975722, -294.000000, -159.000000, -498.000000,   1.009616,   1.115430, -37.053156,   0.948025,   0.012027,   0.005260,  -0.317784, 
27659,  -0.198821,  -0.005438,   9.622140, -27.096326,  -0.008704, -38.624060,  -0.064457,   1.051283,  -0.973849, -300.000000, -157.500000, -498.000000,   1.024260,   0.818130, -37.436964,   0.946976,   0.009629,   0.006173,  -0.320941, 
27660,  -0.156756,  -0.124575,   9.546831, -28.933426,   0.083554, -39.000452,  -0.070082,   1.051195,  -0.977739, -303.000000, -157.500000, -499.500000,   1.039055,   0.504862, -37.824372,   0.945918,   0.007106,   0.007149,  -0.324127, 
27661,  -0.190733,  -0.256413,   9.547013, -31.365226,   0.391244, -39.654188,  -0.069707,   1.058437,  -0.967509, -303.000000, -154.500000, -496.500000,   1.051328,   0.162036, -38.216904,   0.944824,   0.004339,   0.008205,  -0.327344, 
27662,  -0.233935,  -0.149226,   9.624732, -33.408776,   0.658463, -39.927236,  -0.070203,   1.058800,  -0.944244, -303.000000, -153.000000, -489.000000,   1.067175,  -0.184886, -38.614976,   0.943681,   0.001556,   0.009322,  -0.330595, 
27663,  -0.211447,  -0.216696,   9.701640, -34.779408,   0.871264, -40.101008,  -0.073273,   1.057534,  -0.939382, -304.500000, -153.000000, -487.500000,   1.082063,  -0.549895, -39.015548,   0.942515,  -0.001369,   0.010502,  -0.333858, 
27664,  -0.292528,  -0.094014,   9.932397, -35.172472,   1.122958, -40.347452,  -0.079052,   1.059437,  -0.929082, -307.500000, -151.500000, -484.500000,   1.097434,  -0.902924, -39.418012,   0.941340,  -0.004187,   0.011672,  -0.337135, 
27665,  -0.204778,  -0.237797,   9.735250, -35.330368,   1.391042, -40.763136,  -0.079799,   1.085599,  -0.925293, -309.000000, -142.500000, -484.500000,   1.102700,  -1.272283, -39.822668,   0.940122,  -0.007161,   0.012827,  -0.340416, 
27666,  -0.251527,  -0.364637,   9.829829, -35.208996,   1.653286, -41.034664,  -0.078911,   1.095284,  -0.928675, -309.000000, -139.500000, -486.000000,   1.110619,  -1.646271, -40.230152,   0.938872,  -0.010155,   0.014039,  -0.343710, 
27667,  -0.269843,  -0.247749,   9.862233, -35.126624,   1.920220, -40.790168,  -0.078724,   1.098905,  -0.923560, -309.000000, -138.000000, -484.500000,   1.122631,  -1.991825, -40.639052,   0.937608,  -0.012896,   0.015220,  -0.347013, 
27668,  -0.212176,  -0.399671,   9.834821, -34.252976,   2.027311, -40.521424,  -0.085033,   1.095559,  -0.909300, -312.000000, -138.000000, -480.000000,   1.135806,  -2.345856, -41.045096,   0.936325,  -0.015695,   0.016455,  -0.350281, 
27669,  -0.309121,  -0.406792,   9.885438, -33.344330,   2.385146, -40.298120,  -0.091546,   1.085785,  -0.909807, -315.000000, -141.000000, -480.000000,   1.149886,  -2.688130, -41.448432,   0.935039,  -0.018386,   0.017682,  -0.353521, 
27670,  -0.278905,  -0.416589,   9.862050, -32.437786,   2.489656, -39.744764,  -0.096779,   1.095745,  -0.893814, -318.000000, -136.500000, -475.500000,   1.162154,  -3.012653, -41.847864,   0.933748,  -0.020931,   0.018856,  -0.356725, 
27671,  -0.273966,  -0.632237,   9.863513, -31.563836,   2.757856, -39.281676,  -0.104756,   1.103261,  -0.891687, -322.500000, -133.500000, -475.500000,   1.172020,  -3.348267, -42.242444,   0.932451,  -0.023566,   0.020062,  -0.359879, 
27672,  -0.317433,  -0.624903,   9.792572, -31.267832,   2.920476, -38.462288,  -0.104243,   1.105705,  -0.905299, -322.500000, -133.500000, -480.000000,   1.182949,  -3.665383, -42.631732,   0.931143,  -0.026040,   0.021235,  -0.362980, 
27673,  -0.284324,  -0.698109,   9.718080, -31.495892,   2.988175, -37.497572,  -0.108793,   1.118923,  -0.907456, -325.500000, -129.000000, -481.500000,   1.194744,  -3.984450, -43.012148,   0.929863,  -0.028520,   0.022437,  -0.366007, 
27674,  -0.335092,  -0.744647,   9.715049, -32.066806,   3.235105, -36.429012,  -0.115289,   1.111955,  -0.898311, -328.500000, -130.500000, -478.500000,   1.206827,  -4.313100, -43.382720,   0.928603,  -0.031072,   0.023685,  -0.368947, 
27675,  -0.373373,  -0.674200,   9.766219, -32.382484,   3.270839, -35.181528,  -0.126677,   1.116577,  -0.882247, -334.500000, -127.500000, -474.000000,   1.223276,  -4.632127, -43.741172,   0.927348,  -0.033526,   0.024950,  -0.371773, 
27676,  -0.354719,  -0.745348,   9.816998, -32.181888,   3.374343, -33.590644,  -0.134638,   1.126900,  -0.870468, -339.000000, -123.000000, -471.000000,   1.241733,  -4.947718, -44.084700,   0.926123,  -0.035941,   0.026231,  -0.374470, 
27677,  -0.331616,  -0.714865,   9.792733, -31.699572,   3.436591, -31.821398,  -0.123559,   1.126262,  -0.858151, -333.000000, -123.000000, -466.500000,   1.260372,  -5.254257, -44.412320,   0.924954,  -0.038279,   0.027493,  -0.377038, 
27678,  -0.289613,  -0.793465,   9.809778, -31.087678,   3.460406, -30.165506,  -0.124772,   1.117754,  -0.836041, -333.000000, -124.500000, -459.000000,   1.274809,  -5.554899, -44.721916,   0.923846,  -0.040582,   0.028709,  -0.379463, 
27679,  -0.272271,  -0.843353,   9.835578, -30.515028,   3.371533, -28.529462,  -0.130739,   1.116037,  -0.830855, -336.000000, -124.500000, -457.500000,   1.283204,  -5.842662, -45.015224,   0.922773,  -0.042798,   0.029839,  -0.381751, 
27680,  -0.159082,  -0.994184,   9.736255, -30.156200,   3.463050, -27.474692,  -0.128417,   1.143464,  -0.831928, -336.000000, -115.500000, -459.000000,   1.280487,  -6.142484, -45.295300,   0.921704,  -0.045144,   0.030926,  -0.383919, 
27681,  -0.242798,  -0.980205,   9.710263, -30.123030,   3.475767, -26.708242,  -0.133121,   1.158674,  -0.819895, -339.000000, -109.500000, -456.000000,   1.284489,  -6.434835, -45.567632,   0.920666,  -0.047406,   0.032050,  -0.386024, 
27682,  -0.256537,  -1.179683,   9.601435, -30.981892,   3.569846, -26.089420,  -0.137842,   1.171078,  -0.817515, -342.000000, -105.000000, -456.000000,   1.293241,  -6.747902, -45.832308,   0.919646,  -0.049815,   0.033290,  -0.388058, 
27683,  -0.304231,  -1.131623,   9.601113, -32.381778,   3.692805, -25.284580,  -0.149246,   1.172893,  -0.811104, -348.000000, -103.500000, -454.500000,   1.300954,  -7.065374, -46.090540,   0.918643,  -0.052260,   0.034545,  -0.390037, 
27684,  -0.250983,  -1.264210,   9.602009, -33.894144,   3.717757, -24.561048,  -0.147611,   1.156417,  -0.818275, -346.500000, -109.500000, -456.000000,   1.310443,  -7.397137, -46.341516,   0.917631,  -0.054808,   0.035870,  -0.391940, 
27685,  -0.195213,  -1.260883,   9.597703, -34.933140,   3.829989, -23.952590,  -0.143762,   1.137134,  -0.807621, -343.500000, -115.500000, -451.500000,   1.314135,  -7.743685, -46.586288,   0.916614,  -0.057490,   0.037207,  -0.393783, 
27686,  -0.259410,  -1.293928,   9.712285, -35.697908,   3.879155, -23.377044,  -0.146815,   1.138675,  -0.793107, -345.000000, -114.000000, -447.000000,   1.321567,  -8.086938, -46.824304,   0.915617,  -0.060130,   0.038571,  -0.395567, 
27687,  -0.185106,  -1.463123,   9.651347, -35.773348,   4.056988, -23.426934,  -0.148808,   1.150715,  -0.786513, -346.500000, -109.500000, -445.500000,   1.319786,  -8.452184, -47.060272,   0.914613,  -0.062973,   0.039948,  -0.397331, 
27688,  -0.203239,  -1.439530,   9.714376, -35.675872,   4.285774, -23.874348,  -0.158015,   1.146917,  -0.771928, -351.000000, -109.500000, -441.000000,   1.319707,  -8.802894, -47.298772,   0.913576,  -0.065685,   0.041299,  -0.399105, 
27689,  -0.132051,  -1.603457,   9.687057, -35.365184,   4.371960, -24.278430,  -0.163282,   1.151264,  -0.775240, -354.000000, -108.000000, -442.500000,   1.314815,  -9.166962, -47.541768,   0.912515,  -0.068515,   0.042673,  -0.400911, 
27690,  -0.207818,  -1.648996,   9.554854, -35.471120,   4.794625, -25.177198,  -0.165259,   1.166111,  -0.758994, -355.500000, -102.000000, -438.000000,   1.312330,  -9.534515, -47.792292,   0.911427,  -0.071355,   0.044096,  -0.402774, 
27691,  -0.215277,  -1.777875,   9.600744, -36.171956,   5.024364, -25.798746,  -0.158203,   1.143296,  -0.777043, -351.000000, -111.000000, -442.500000,   1.315486,  -9.910452, -48.050488,   0.910279,  -0.074231,   0.045610,  -0.404677, 
27692,  -0.169933,  -1.948805,   9.582081, -36.630892,   5.386564, -26.502304,  -0.166334,   1.152805,  -0.760726, -355.500000, -106.500000, -438.000000,   1.314938, -10.303527, -48.316180,   0.909060,  -0.077244,   0.047172,  -0.406619, 
27693,  -0.083295,  -1.933681,   9.522540, -37.348660,   5.624750, -27.219622,  -0.174278,   1.165934,  -0.739294, -360.000000, -100.500000, -432.000000,   1.305913, -10.693312, -48.589896,   0.907814,  -0.080251,   0.048675,  -0.408632, 
27694,  -0.093508,  -2.073059,   9.500532, -37.908828,   6.109911, -28.278932,  -0.182410,   1.175442,  -0.722977, -364.500000, -96.000000, -427.500000,   1.292541, -11.102749, -48.872548,   0.906521,  -0.083420,   0.050235,  -0.410710, 
27695,  -0.037733,  -2.047323,   9.521622, -39.004108,   6.366296, -29.087116,  -0.184949,   1.179427,  -0.722076, -366.000000, -94.500000, -427.500000,   1.276329, -11.504370, -49.165600,   0.905172,  -0.086524,   0.051768,  -0.412864, 
27696,  -0.074072,  -2.297010,   9.450951, -39.821412,   6.887222, -30.226948,  -0.177736,   1.195265,  -0.730066, -363.000000, -90.000000, -430.500000,   1.263379, -11.935583, -49.468152,   0.903728,  -0.089834,   0.053456,  -0.415057, 
27697,  -0.179399,  -2.235788,   9.489157, -40.639576,   7.309983, -31.429454,  -0.183311,   1.203596,  -0.704998, -366.000000, -85.500000, -423.000000,   1.262736, -12.368607, -49.783568,   0.902236,  -0.093099,   0.055275,  -0.417338, 
27698,  -0.167454,  -2.368777,   9.478534, -41.303324,   7.760367, -32.377388,  -0.186347,   1.207943,  -0.680831, -367.500000, -82.500000, -415.500000,   1.264713, -12.808600, -50.111368,   0.900681,  -0.096392,   0.057169,  -0.419701, 
27699,  -0.167684,  -2.519231,   9.353315, -42.232456,   8.291325, -33.344220,  -0.189962,   1.198621,  -0.681662, -369.000000, -85.500000, -415.500000,   1.263250, -13.272820, -50.448860,   0.899042,  -0.099872,   0.059151,  -0.422117, 
27700,  -0.078128,  -2.520662,   9.292014, -43.925384,   8.868441, -34.327340,  -0.199031,   1.190024,  -0.690921, -373.500000, -88.500000, -418.500000,   1.255499, -13.747846, -50.797388,   0.897334,  -0.103441,   0.061155,  -0.424609, 
27701,  -0.072061,  -2.653833,   9.391706, -45.225060,   9.275904, -35.256932,  -0.190321,   1.194185,  -0.682240, -369.000000, -87.000000, -415.500000,   1.242791, -14.233912, -51.156132,   0.895545,  -0.107096,   0.063192,  -0.427162, 
27702,  -0.161023,  -2.546018,   9.443052, -46.481448,   9.792194, -35.757672,  -0.187577,   1.196629,  -0.668374, -367.500000, -85.500000, -411.000000,   1.238689, -14.716596, -51.523448,   0.893702,  -0.110673,   0.065313,  -0.429759, 
27703,  -0.166092,  -2.576185,   9.470141, -46.478700,  10.040359, -35.935984,  -0.193014,   1.200161,  -0.667149, -370.500000, -84.000000, -411.000000,   1.239321, -15.191589, -51.894412,   0.891857,  -0.114158,   0.067470,  -0.432381, 
27704,  -0.196853,  -2.564941,   9.528345, -45.951988,  10.341922, -35.872616,  -0.198265,   1.207315,  -0.660808, -373.500000, -81.000000, -409.500000,   1.240069, -15.654622, -52.265996,   0.889982,  -0.117533,   0.069604,  -0.434992, 
27705,  -0.292908,  -2.579954,   9.548864, -45.444924,  10.504460, -35.167904,  -0.197890,   1.214557,  -0.650578, -373.500000, -78.000000, -406.500000,   1.247164, -16.099026, -52.634304,   0.888105,  -0.120724,   0.071732,  -0.437559, 
27706,  -0.284746,  -2.722188,   9.433156, -44.852256,  10.630955, -34.515108,  -0.198419,   1.209307,  -0.646618, -373.500000, -79.500000, -405.000000,   1.255262, -16.545862, -52.997044,   0.886250,  -0.123923,   0.073894,  -0.440078, 
27707,  -0.267360,  -2.692773,   9.466355, -44.611504,  10.785282, -33.796072,  -0.199666,   1.195186,  -0.643813, -373.500000, -84.000000, -403.500000,   1.260033, -16.975152, -53.353392,   0.884428,  -0.126991,   0.075976,  -0.442554, 
27708,  -0.251052,  -2.847151,   9.437780, -43.983408,  10.724695, -33.181026,  -0.203653,   1.219267,  -0.630625, -376.500000, -75.000000, -400.500000,   1.262050, -17.404950, -53.702628,   0.882577,  -0.130060,   0.078046,  -0.444946, 
27709,  -0.319769,  -2.687369,   9.534429, -43.085268,  10.779643, -32.465218,  -0.212093,   1.232759,  -0.585928, -381.000000, -67.500000, -387.000000,   1.270216, -17.807884, -54.046060,   0.880777,  -0.132890,   0.080071,  -0.447298, 
27710,  -0.292067,  -2.890712,   9.507217, -41.153888,  10.774287, -31.478010,  -0.214007,   1.218187,  -0.555321, -381.000000, -70.500000, -376.500000,   1.280384, -18.201530, -54.380560,   0.879025,  -0.135638,   0.082082,  -0.449582, 
27711,  -0.319906,  -2.726932,   9.519054, -39.637976,  10.630530, -30.489132,  -0.216563,   1.219364,  -0.564072, -382.500000, -70.500000, -379.500000,   1.290071, -18.555796, -54.706036,   0.877330,  -0.138079,   0.083938,  -0.451809, 
27712,  -0.298058,  -2.946301,   9.471461, -38.123204,  10.414888, -29.253994,  -0.225086,   1.218824,  -0.567637, -387.000000, -70.500000, -381.000000,   1.300867, -18.910298, -55.020128,   0.875657,  -0.140514,   0.085803,  -0.453931, 
27713,  -0.327534,  -2.864472,   9.456348, -36.381488,  10.359331, -28.116984,  -0.231053,   1.217107,  -0.562451, -390.000000, -70.500000, -379.500000,   1.308538, -19.233582, -55.323060,   0.874054,  -0.142722,   0.087519,  -0.455986, 
27714,  -0.306471,  -3.078001,   9.412557, -35.094616,   9.907170, -26.653582,  -0.233389,   1.227518,  -0.546783, -391.500000, -66.000000, -375.000000,   1.315950, -19.554804, -55.612948,   0.872506,  -0.144918,   0.089221,  -0.457942, 
27715,  -0.407587,  -3.051802,   9.314573, -34.511832,   9.682899, -25.593254,  -0.233030,   1.231954,  -0.546205, -391.500000, -64.500000, -375.000000,   1.332286, -19.874458, -55.889520,   0.871004,  -0.147066,   0.090977,  -0.459773, 
27716,  -0.303670,  -3.155001,   9.290296, -34.035936,   9.316143, -24.223332,  -0.233405,   1.224712,  -0.556435, -391.500000, -67.500000, -378.000000,   1.343853, -20.182582, -56.153400,   0.869554,  -0.149148,   0.092645,  -0.461515, 
27717,  -0.328715,  -3.205191,   9.323910, -33.276214,   9.122748, -23.231098,  -0.239902,   1.217744,  -0.547289, -394.500000, -69.000000, -375.000000,   1.351552, -20.492302, -56.405384,   0.868133,  -0.151259,   0.094283,  -0.463161, 
27718,  -0.325982,  -3.257314,   9.276944, -32.800122,   8.833894, -22.090898,  -0.250964,   1.221188,  -0.549953, -400.500000, -67.500000, -376.500000,   1.362149, -20.789036, -56.646532,   0.866768,  -0.153262,   0.095885,  -0.464724, 
27719,  -0.345596,  -3.367906,   9.154884, -32.484462,   8.738732, -21.418986,  -0.260530,   1.212955,  -0.535947, -405.000000, -69.000000, -372.000000,   1.372787, -21.101274, -56.878240,   0.865421,  -0.155384,   0.097546,  -0.466201, 
27720,  -0.306428,  -3.453708,   9.202463, -32.231426,   8.656871, -20.880970,  -0.246553,   1.212769,  -0.523954, -397.500000, -69.000000, -367.500000,   1.384302, -21.407108, -57.105028,   0.864078,  -0.157449,   0.099187,  -0.467627, 
27721,  -0.247087,  -3.545020,   9.168482, -31.893664,   8.715142, -20.542602,  -0.226063,   1.222357,  -0.511455, -387.000000, -66.000000, -363.000000,   1.385699, -21.717270, -57.327024,   0.862742,  -0.159586,   0.100772,  -0.469027, 
27722,  -0.203479,  -3.708194,   9.114401, -31.474458,   8.830366, -20.629736,  -0.231296,   1.232317,  -0.495462, -390.000000, -61.500000, -358.500000,   1.386036, -22.035436, -57.548612,   0.861396,  -0.161783,   0.102391,  -0.470416, 
27723,  -0.164698,  -3.819334,   9.053238, -30.841674,   9.084306, -20.942194,  -0.250352,   1.240471,  -0.505651, -400.500000, -58.500000, -363.000000,   1.383511, -22.359954, -57.773364,   0.860017,  -0.164030,   0.104027,  -0.471820, 
27724,  -0.195058,  -3.872847,   8.943336, -31.062724,   9.410222, -21.481324,  -0.262286,   1.237036,  -0.495280, -406.500000, -58.500000, -360.000000,   1.384223, -22.688576, -58.003536,   0.858586,  -0.166279,   0.105718,  -0.473240, 
27725,  -0.217380,  -4.030777,   8.790668, -31.786468,   9.757288, -21.976296,  -0.260243,   1.233415,  -0.472917, -405.000000, -58.500000, -352.500000,   1.388762, -23.044558, -58.240460,   0.857078,  -0.168702,   0.107569,  -0.474669, 
27726,  -0.205010,  -4.102003,   8.755826, -33.666076,  10.013452, -22.210992,  -0.259013,   1.244729,  -0.485374, -405.000000, -55.500000, -357.000000,   1.391332, -23.410124, -58.482124,   0.855536,  -0.171195,   0.109463,  -0.476125, 
27727,  -0.276002,  -4.178747,   8.728163, -35.806716,  10.386235, -22.566398,  -0.259526,   1.242286,  -0.471762, -405.000000, -55.500000, -352.500000,   1.403206, -23.809384, -58.728156,   0.853935,  -0.173889,   0.111585,  -0.477564, 
27728,  -0.259172,  -4.236636,   8.678741, -38.202944,  10.473570, -22.415250,  -0.260585,   1.231786,  -0.463842, -405.000000, -58.500000, -349.500000,   1.412247, -24.221436, -58.974988,   0.852283,  -0.176676,   0.113750,  -0.478982, 
27729,  -0.258061,  -4.188860,   8.724749, -40.493780,  10.621430, -22.170006,  -0.263858,   1.224092,  -0.473748, -406.500000, -61.500000, -352.500000,   1.419298, -24.654002, -59.221164,   0.850578,  -0.179612,   0.115994,  -0.480362, 
27730,  -0.196941,  -4.071305,   8.895974, -42.235412,  10.448947, -21.307456,  -0.266723,   1.229254,  -0.454118, -408.000000, -58.500000, -346.500000,   1.420490, -25.070042, -59.461436,   0.848913,  -0.182446,   0.118129,  -0.481716, 
27731,  -0.184120,  -4.011246,   9.019322, -42.091392,  10.075295, -20.082490,  -0.259819,   1.249076,  -0.433729, -405.000000, -51.000000, -340.500000,   1.414144, -25.462482, -59.690012,   0.847316,  -0.185140,   0.120101,  -0.483011, 
27732,  -0.235242,  -3.817452,   9.183336, -40.241056,   9.580417, -18.601070,  -0.263246,   1.243375,  -0.429445, -406.500000, -52.500000, -339.000000,   1.405340, -25.806444, -59.903696,   0.845840,  -0.187492,   0.121834,  -0.484238, 
27733,  -0.455277,  -3.629105,   9.396448, -37.408316,   9.108879, -17.332756,  -0.270443,   1.230343,  -0.411802, -409.500000, -55.500000, -333.000000,   1.409016, -26.198994, -60.104016,   0.844351,  -0.190157,   0.123852,  -0.485289, 
27734,  -0.504639,  -3.524043,   9.570841, -32.805668,   8.464991, -15.918426,  -0.269726,   1.239214,  -0.410647, -409.500000, -52.500000, -333.000000,   1.412400, -26.554406, -60.290676,   0.842983,  -0.192559,   0.125697,  -0.486278, 
27735,  -0.498079,  -3.491063,   9.616945, -26.162396,   7.633548, -13.727792,  -0.271736,   1.248448,  -0.413706, -411.000000, -49.500000, -334.500000,   1.416032, -26.852728, -60.457764,   0.841780,  -0.194553,   0.127275,  -0.487175, 
27736,  -0.498426,  -3.358286,   9.716180, -19.512782,   6.625664, -11.244321,  -0.272249,   1.246004,  -0.400093, -411.000000, -49.500000, -330.000000,   1.421622, -27.083668, -60.600116,   0.840774,  -0.196063,   0.128539,  -0.487945, 
27737,  -0.490598,  -3.195896,   9.762383, -12.867184,   5.263526,  -8.453885,  -0.275677,   1.240303,  -0.395809, -412.500000, -51.000000, -328.500000,   1.428116, -27.246236, -60.712864,   0.840014,  -0.197099,   0.129471,  -0.488573, 
27738,  -0.824193,  -3.698518,   9.394240,  -6.844746,   4.184730,  -6.204861,  -0.280585,   1.249085,  -0.398544, -415.500000, -48.000000, -330.000000,   1.434551, -27.346384, -60.796372,   0.839489,  -0.197710,   0.130089,  -0.489058, 
27739,  -0.529310,  -3.571492,   9.400656,  -2.877993,   2.790987,  -3.844833,  -0.268243,   1.265375,  -0.379380, -409.500000, -42.000000, -324.000000,   1.440907, -27.392938, -60.854188,   0.839166,  -0.197957,   0.130434,  -0.489416, 
27740,  -0.663301,  -3.114034,   9.335642,  -1.388679,   1.664831,  -2.464666,  -0.271157,   1.262117,  -0.388708, -411.000000, -43.500000, -327.000000,   1.445328, -27.412822, -60.889360,   0.838984,  -0.198043,   0.130611,  -0.489643, 
27741,  -0.711141,  -3.974508,   8.843682,  -0.997182,   0.546232,  -1.844912,  -0.280943,   1.244650,  -0.399121, -415.500000, -49.500000, -330.000000,   1.468553, -27.386292, -60.912828,   0.838951,  -0.197722,   0.130708,  -0.489801, 
27742,  -0.209337,  -3.831994,   8.967913,  -1.326721,  -0.305757,   0.146700,  -0.278917,   1.238222,  -0.386410, -414.000000, -51.000000, -325.500000,   1.463626, -27.292838, -60.914512,   0.839100,  -0.197057,   0.130275,  -0.489929, 
27743,  -0.511149,  -4.095342,   8.877548,  -2.732370,  -0.925881,   0.015762,  -0.275506,   1.241117,  -0.400347, -412.500000, -51.000000, -330.000000,   1.488111, -27.240928, -60.911012,   0.839228,  -0.196575,   0.130226,  -0.489918, 
27744,  -0.175988,  -4.174800,   8.611468,  -3.809145,  -1.316323,  -0.281530,  -0.278200,   1.247093,  -0.385255, -414.000000, -48.000000, -325.500000,   1.474286, -27.219742, -60.906124,   0.839273,  -0.196485,   0.130026,  -0.489932, 
27745,   1.223410,  -6.444172,   7.565728,  -2.138490,  -0.601455,   1.107234,  -0.278558,   1.242658,  -0.385833, -414.000000, -49.500000, -325.500000,   1.466915, -27.252612, -60.893592,   0.839263,  -0.196772,   0.130092,  -0.489816, 
27746,  -0.651844,  -3.706892,   8.756371,   1.562417,   0.840927,  -0.462522,  -0.268930,   1.221472,  -0.385478, -408.000000, -57.000000, -324.000000,   1.444700, -27.290426, -60.900624,   0.839147,  -0.197137,   0.130103,  -0.489865, 
27747,  -0.719468,  -4.336406,   8.675766,  -1.063824,  -0.543674,   0.711061,  -0.265657,   1.229165,  -0.375573, -406.500000, -54.000000, -321.000000,   1.474923, -27.279200, -60.900932,   0.839193,  -0.196924,   0.130276,  -0.489824, 
27748,   0.574020,  -5.373430,   8.362472,  -0.963569,  -0.057605,   0.129001,  -0.272933,   1.242746,  -0.381943, -411.000000, -49.500000, -324.000000,   1.447532, -27.317636, -60.892892,   0.839136,  -0.197333,   0.130227,  -0.489773, 
27749,  -0.631486,  -3.918918,   8.647199,  -0.708163,   0.490478,  -0.432841,  -0.275660,   1.243109,  -0.386157, -412.500000, -49.500000, -325.500000,   1.457265, -27.317708, -60.895064,   0.839135,  -0.197289,   0.130302,  -0.489771, 
27750,  -0.179075,  -4.498376,   8.797717,  -0.988995,  -0.031080,   0.085677,  -0.280756,   1.248271,  -0.394006, -415.500000, -48.000000, -328.500000,   1.468939, -27.292358, -60.894388,   0.839192,  -0.197054,   0.130277,  -0.489773, 
27751,  -0.041495,  -4.650579,   8.677065,  -2.325582,   0.237707,  -0.141844,  -0.278029,   1.247908,  -0.389793, -414.000000, -48.000000, -327.000000,   1.436506, -27.330246, -60.892972,   0.839104,  -0.197473,   0.130201,  -0.489779, 
27752,  -0.418203,  -4.296507,   8.490367,  -2.214155,   0.219753,  -0.123530,  -0.278200,   1.247093,  -0.385255, -414.000000, -48.000000, -325.500000,   1.453331, -27.342518, -60.893176,   0.839097,  -0.197490,   0.130376,  -0.489736, 
27753,   0.031800,  -4.549381,   8.754992,  -2.196092,   0.299471,  -0.182835,  -0.276019,   1.238674,  -0.386734, -412.500000, -51.000000, -325.500000,   1.431291, -27.363502, -60.893180,   0.839040,  -0.197739,   0.130305,  -0.489753, 
27754,  -0.464827,  -4.427005,   8.856422,  -2.651115,   0.318551,  -0.135291,  -0.273479,   1.234690,  -0.387636, -411.000000, -52.500000, -325.500000,   1.441337, -27.372746, -60.893568,   0.839032,  -0.197762,   0.130418,  -0.489726, 
27755,  -0.128294,  -4.464866,   8.462905,  -2.508447,   0.007608,   0.008705,  -0.285413,   1.231255,  -0.377265, -417.000000, -52.500000, -322.500000,   1.442274, -27.396506, -60.892404,   0.838997,  -0.197934,   0.130525,  -0.489689, 
27756,  -0.051624,  -4.740728,   8.557124,  -2.735906,   0.416248,  -0.204113,  -0.284884,   1.236505,  -0.381225, -417.000000, -51.000000, -324.000000,   1.414562, -27.454464, -60.892724,   0.838870,  -0.198478,   0.130571,  -0.489677, 
27757,  -0.441158,  -4.378035,   8.846600,  -3.012342,   0.247792,  -0.218854,  -0.278012,   1.250714,  -0.380140, -414.000000, -46.500000, -324.000000,   1.430333, -27.473130, -60.894652,   0.838844,  -0.198544,   0.130769,  -0.489640, 
27758,  -0.110168,  -4.476924,   8.552146,  -3.332041,   0.089614,   0.018495,  -0.281098,   1.246642,  -0.384931, -415.500000, -48.000000, -325.500000,   1.424967, -27.488976, -60.894056,   0.838814,  -0.198684,   0.130797,  -0.489628, 
27759,  -0.137402,  -4.686503,   8.502227,  -3.708238,   0.232093,  -0.122364,  -0.268993,   1.250891,  -0.399840, -409.500000, -48.000000, -330.000000,   1.411871, -27.553932, -60.893816,   0.838691,  -0.199216,   0.130978,  -0.489577, 
27760,  -0.279220,  -4.378636,   8.816527,  -4.145449,   0.285834,  -0.248067,  -0.262292,   1.264286,  -0.394218, -406.500000, -43.500000, -328.500000,   1.414233, -27.579642, -60.895204,   0.838642,  -0.199393,   0.131108,  -0.489553, 
27761,  -0.246871,  -4.456201,   8.651929,  -4.336507,   0.206412,  -0.014669,  -0.269848,   1.246819,  -0.377152, -409.500000, -48.000000, -322.500000,   1.411539, -27.597910, -60.895060,   0.838609,  -0.199538,   0.131166,  -0.489536, 
27762,  -0.235121,  -4.686712,   8.509760,  -4.360413,   0.278040,  -0.128733,  -0.274317,   1.233424,  -0.355296, -411.000000, -51.000000, -315.000000,   1.417145, -27.664906, -60.895428,   0.838497,  -0.200004,   0.131494,  -0.489452, 
27763,  -0.209416,  -4.463846,   8.726694,  -4.853979,   0.333117,  -0.211518,  -0.273617,   1.239488,  -0.363793, -411.000000, -49.500000, -318.000000,   1.413329, -27.706608, -60.896472,   0.838416,  -0.200325,   0.131646,  -0.489419, 
27764,  -0.260539,  -4.506619,   8.641891,  -5.237208,   0.200340,  -0.061445,  -0.279634,   1.229351,  -0.387565, -414.000000, -54.000000, -325.500000,   1.416158, -27.741534, -60.896592,   0.838358,  -0.200568,   0.131816,  -0.489375, 
27765,  -0.179187,  -4.690972,   8.489650,  -5.344222,   0.184754,  -0.064835,  -0.278917,   1.238222,  -0.386410, -414.000000, -51.000000, -325.500000,   1.415305, -27.816128, -60.896760,   0.838228,  -0.201118,   0.132129,  -0.489293, 
27766,  -0.166131,  -4.519503,   8.690979,  -5.587015,   0.414153,  -0.157233,  -0.270019,   1.246004,  -0.372615, -409.500000, -48.000000, -321.000000,   1.404947, -27.869400, -60.897588,   0.838122,  -0.201551,   0.132283,  -0.489258, 
27767,  -0.326731,  -4.506925,   8.703234,  -5.771186,   0.224978,  -0.122976,  -0.262009,   1.244101,  -0.355437, -405.000000, -48.000000, -315.000000,   1.410513, -27.909280, -60.898304,   0.838055,  -0.201818,   0.132495,  -0.489208, 
27768,  -0.149177,  -4.623274,   8.528740,  -5.511425,   0.245039,  -0.141999,  -0.273788,   1.238674,  -0.359256, -411.000000, -49.500000, -316.500000,   1.408390, -27.970398, -60.898372,   0.837947,  -0.202275,   0.132741,  -0.489143, 
27769,  -0.169154,  -4.567356,   8.655579,  -5.739384,   0.335067,  -0.228973,  -0.285038,   1.238497,  -0.367034, -417.000000, -49.500000, -319.500000,   1.395920, -28.024228, -60.899384,   0.837837,  -0.202722,   0.132882,  -0.489112, 
27770,  -0.347696,  -4.579492,   8.615224,  -6.223620,   0.309180,  -0.096487,  -0.281611,   1.244198,  -0.371319, -415.500000, -48.000000, -321.000000,   1.404725, -28.076930, -60.900108,   0.837752,  -0.203069,   0.133173,  -0.489041, 
27771,  -0.185527,  -4.711364,   8.453393,  -7.022814,   0.251709,  -0.097609,  -0.278900,   1.241029,  -0.376758, -414.000000, -49.500000, -322.500000,   1.406508, -28.160264, -60.900760,   0.837604,  -0.203670,   0.133542,  -0.488946, 
27772,  -0.191295,  -4.699827,   8.476440,  -8.164347,   0.304553,  -0.135355,  -0.279788,   1.231343,  -0.373375, -414.000000, -52.500000, -321.000000,   1.401884, -28.256776, -60.901984,   0.837418,  -0.204393,   0.133922,  -0.488848, 
27773,  -0.293273,  -4.664341,   8.540753,  -9.465253,   0.265063,  -0.132015,  -0.273292,   1.238311,  -0.382521, -411.000000, -51.000000, -324.000000,   1.409157, -28.353336, -60.903116,   0.837245,  -0.205065,   0.134388,  -0.488728, 
27774,  -0.173473,  -4.754213,   8.448207, -10.836007,   0.203929,  -0.140466,  -0.267104,   1.249262,  -0.363286, -408.000000, -46.500000, -318.000000,   1.406912, -28.473052, -60.904324,   0.837020,  -0.205947,   0.134884,  -0.488599, 
27775,  -0.188899,  -4.757548,   8.439171, -11.991151,   0.317790,  -0.236264,  -0.270686,   1.245553,  -0.344812, -409.500000, -46.500000, -312.000000,   1.400292, -28.608574, -60.906276,   0.836758,  -0.206962,   0.135417,  -0.488464, 
27776,  -0.231877,  -4.722842,   8.547531, -12.732235,   0.350221,  -0.219677,  -0.276328,   1.242658,  -0.358354, -412.500000, -48.000000, -316.500000,   1.399944, -28.739118, -60.908696,   0.836509,  -0.207913,   0.135975,  -0.488327, 
27777,  -0.219952,  -4.678870,   8.567517, -13.387375,   0.384268,  -0.234992,  -0.283775,   1.255424,  -0.360187, -417.000000, -43.500000, -318.000000,   1.399352, -28.863766, -60.910264,   0.836275,  -0.208824,   0.136505,  -0.488191, 
27778,  -0.206726,  -4.721772,   8.553031, -13.239191,   0.324847,  -0.190901,  -0.278867,   1.246642,  -0.357453, -414.000000, -46.500000, -316.500000,   1.397156, -28.992256, -60.911912,   0.836032,  -0.209769,   0.137039,  -0.488055, 
27779,  -0.218472,  -4.654293,   8.623677, -12.715510,   0.398536,  -0.235073,  -0.277745,   1.227722,  -0.351012, -412.500000, -52.500000, -313.500000,   1.395049, -29.107136, -60.913332,   0.835814,  -0.210615,   0.137516,  -0.487932, 
27780,  -0.259112,  -4.681570,   8.657126, -12.045346,   0.339737,  -0.220999,  -0.277916,   1.226908,  -0.346474, -412.500000, -52.500000, -312.000000,   1.394053, -29.209134, -60.914716,   0.835622,  -0.211362,   0.137946,  -0.487823, 
27781,  -0.220632,  -4.705661,   8.569594, -11.404078,   0.261470,  -0.161173,  -0.270499,   1.249174,  -0.339697, -409.500000, -45.000000, -310.500000,   1.392600, -29.309012, -60.915584,   0.835435,  -0.212096,   0.138362,  -0.487713, 
27782,  -0.197916,  -4.792641,   8.510556, -11.204067,   0.320276,  -0.168562,  -0.272509,   1.258408,  -0.342756, -411.000000, -42.000000, -312.000000,   1.386707, -29.417326, -60.916652,   0.835227,  -0.212910,   0.138783,  -0.487604, 
27783,  -0.284303,  -4.793050,   8.530240, -11.175093,   0.252812,  -0.205221,  -0.272663,   1.260400,  -0.328566, -411.000000, -40.500000, -307.500000,   1.391726, -29.523728, -60.917672,   0.835034,  -0.213664,   0.139275,  -0.487475, 
27784,  -0.169806,  -4.852332,   8.452889, -11.634104,   0.250026,  -0.183251,  -0.276416,   1.255876,  -0.305554, -412.500000, -40.500000, -300.000000,   1.387275, -29.637104, -60.918864,   0.834808,  -0.214507,   0.139726,  -0.487352, 
27785,  -0.154253,  -4.948163,   8.331234, -12.563541,   0.335127,  -0.195846,  -0.281561,   1.252618,  -0.342361, -415.500000, -43.500000, -312.000000,   1.381302, -29.774750, -60.920752,   0.834531,  -0.215532,   0.140271,  -0.487206, 
27786,  -0.240025,  -4.934051,   8.379719, -13.616098,   0.414525,  -0.219568,  -0.281578,   1.249811,  -0.352014, -415.500000, -45.000000, -315.000000,   1.381244, -29.921888, -60.923120,   0.834240,  -0.216599,   0.140900,  -0.487041, 
27787,  -0.216815,  -4.869354,   8.493248, -14.088840,   0.361987,  -0.269224,  -0.272509,   1.258408,  -0.342756, -411.000000, -42.000000, -312.000000,   1.381791, -30.059078, -60.924848,   0.833971,  -0.217593,   0.141490,  -0.486882, 
27788,  -0.180331,  -4.906680,   8.465757, -14.192174,   0.335618,  -0.253425,  -0.270841,   1.247545,  -0.330622, -409.500000, -45.000000, -307.500000,   1.377659, -30.197426, -60.926472,   0.833695,  -0.218615,   0.142050,  -0.486731, 
27789,  -0.452215,  -4.623395,   8.618546, -13.685150,   0.351608,  -0.378100,  -0.276433,   1.253069,  -0.315207, -412.500000, -42.000000, -303.000000,   1.382635, -30.302054, -60.927812,   0.833495,  -0.219353,   0.142533,  -0.486600, 
27790,  -0.079062,  -4.967492,   8.533750, -11.992601,   0.436683,  -0.375349,  -0.275186,   1.267190,  -0.318012, -412.500000, -37.500000, -304.500000,   1.362649, -30.417286, -60.929192,   0.833247,  -0.220275,   0.142881,  -0.486507, 
27791,  -0.452339,  -4.691845,   8.565974, -11.160975,   0.310531,  -0.316211,  -0.273193,   1.255150,  -0.324606, -411.000000, -42.000000, -306.000000,   1.384881, -30.493474, -60.931360,   0.833117,  -0.220732,   0.143369,  -0.486384, 
27792,   0.143128,  -5.075768,   8.439725,  -9.547096,   0.262557,  -0.273175,  -0.271712,   1.240666,  -0.317587, -409.500000, -46.500000, -303.000000,   1.363664, -30.594550, -60.931228,   0.832900,  -0.221558,   0.143645,  -0.486300, 
27793,  -0.336658,  -4.944001,   8.538337,  -9.725142,   0.503426,  -0.218639,  -0.271183,   1.245916,  -0.321547, -409.500000, -45.000000, -304.500000,   1.357953, -30.677402, -60.932716,   0.832729,  -0.222183,   0.143958,  -0.486220, 
27794,  -0.172929,  -4.955560,   8.360140,  -9.479489,   0.183267,  -0.091077,  -0.279160,   1.253432,  -0.319420, -414.000000, -42.000000, -304.500000,   1.358691, -30.757362, -60.933244,   0.832575,  -0.222761,   0.144304,  -0.486123, 
27795,  -0.164368,  -5.185401,   8.323457,  -9.236093,   0.448595,  -0.283850,  -0.276245,   1.256690,  -0.310092, -412.500000, -40.500000, -301.500000,   1.335233, -30.870020, -60.934616,   0.832328,  -0.223679,   0.144616,  -0.486041, 
27796,  -0.465241,  -4.766812,   8.549893,  -9.340684,   0.306929,  -0.200489,  -0.264791,   1.263295,  -0.287545, -406.500000, -37.500000, -294.000000,   1.362975, -30.942070, -60.936948,   0.832211,  -0.224081,   0.145127,  -0.485912, 
27797,  -0.225055,  -5.319406,   8.064420,  -9.031385,   0.351558,  -0.030933,  -0.273485,   1.261940,  -0.286573, -411.000000, -37.500000, -294.000000,   1.325673, -31.052732, -60.936340,   0.831950,  -0.225044,   0.145324,  -0.485841, 
27798,  -0.706275,  -4.811034,   8.387542,  -9.779837,   0.174159,  -0.268607,  -0.282742,   1.249723,  -0.300946, -415.500000, -42.000000, -298.500000,   1.367165, -31.141654, -60.938940,   0.831808,  -0.225508,   0.146006,  -0.485660, 
27799,   0.218650,  -5.274778,   8.202315, -11.034555,   0.125103,   0.012598,  -0.282571,   1.250537,  -0.305484, -415.500000, -42.000000, -300.000000,   1.328196, -31.249540, -60.938540,   0.831549,  -0.226457,   0.146180,  -0.485598, 
27800,  -0.462416,  -5.320568,   7.935175, -14.283788,   0.611215,  -0.327865,  -0.276571,   1.257868,  -0.291364, -412.500000, -39.000000, -295.500000,   1.340855, -31.447388, -60.942016,   0.831154,  -0.227833,   0.147116,  -0.485341, 
27801,  -0.219364,  -5.182843,   8.020883, -17.343730,   0.343050,  -0.218388,  -0.282008,   1.261400,  -0.290139, -415.500000, -37.500000, -295.500000,   1.370021, -31.637008, -60.945680,   0.830793,  -0.229079,   0.148137,  -0.485062, 
27802,  -0.002135,  -5.619181,   7.988567, -21.282736,   0.582717,  -0.353256,  -0.282538,   1.256150,  -0.286179, -415.500000, -39.000000, -294.000000,   1.335454, -31.890748, -60.949348,   0.830229,  -0.231061,   0.148969,  -0.484833, 
27803,  -0.484515,  -5.280351,   7.965726, -24.235562,   0.695929,  -0.418586,  -0.280015,   1.249360,  -0.296733, -414.000000, -42.000000, -297.000000,   1.367657, -32.173370, -60.955284,   0.829677,  -0.232965,   0.150410,  -0.484444, 
27804,  -0.037076,  -5.381574,   8.036860, -26.341378,   0.523481,  -0.296898,  -0.279844,   1.250174,  -0.301270, -414.000000, -42.000000, -298.500000,   1.362280, -32.446568, -60.959828,   0.829095,  -0.234960,   0.151535,  -0.484129, 
27805,  -0.211396,  -5.613664,   8.019469, -28.604994,   0.802363,  -0.708513,  -0.277084,   1.255424,  -0.277752, -412.500000, -39.000000, -291.000000,   1.359245, -32.779744, -60.967008,   0.828366,  -0.237370,   0.152933,  -0.483740, 
27806,  -0.375145,  -5.224905,   8.099956, -30.478984,   0.638646,  -0.514492,  -0.274698,   1.253432,  -0.264463, -411.000000, -39.000000, -286.500000,   1.379705, -33.078704, -60.974716,   0.827734,  -0.239432,   0.154358,  -0.483349, 
27807,  -0.271551,  -5.589087,   7.962972, -31.182580,   0.702722,  -0.477590,  -0.270133,   1.243021,  -0.252654, -408.000000, -42.000000, -282.000000,   1.388627, -33.418736, -60.981120,   0.827008,  -0.241842,   0.155870,  -0.482918, 
27808,  -0.319496,  -5.360114,   8.233656, -32.736668,   0.705726,  -0.590389,  -0.273014,   1.245376,  -0.242677, -409.500000, -40.500000, -279.000000,   1.389118, -33.743348, -60.988372,   0.826300,  -0.244175,   0.157259,  -0.482532, 
27809,  -0.308841,  -5.291560,   8.207815, -33.297142,   0.512458,  -0.365018,  -0.277205,   1.263029,  -0.244256, -412.500000, -34.500000, -280.500000,   1.393785, -34.042344, -60.992780,   0.825638,  -0.246301,   0.158558,  -0.482136, 
27810,  -0.072065,  -5.400653,   8.203603, -32.005580,   0.810399,  -0.667505,  -0.279916,   1.266199,  -0.238818, -414.000000, -33.000000, -279.000000,   1.377051, -34.345800, -60.998256,   0.824933,  -0.248549,   0.159725,  -0.481788, 
27811,  -0.231768,  -5.223828,   8.478732, -30.695966,   1.188101,  -1.020594,  -0.271751,   1.262303,  -0.235830, -409.500000, -34.500000, -277.500000,   1.365535, -34.597864, -61.007672,   0.824331,  -0.250398,   0.160723,  -0.481530, 
27812,  -0.382681,  -4.960527,   8.627687, -27.773896,   1.338886,  -1.534010,  -0.267761,   1.278868,  -0.224769, -408.000000, -28.500000, -274.500000,   1.367254, -34.890904, -61.023204,   0.823630,  -0.252478,   0.162001,  -0.481228, 
27813,  -0.315543,  -4.954305,   8.631144, -23.677722,   2.045208,  -2.477175,  -0.276610,   1.279505,  -0.209607, -412.500000, -27.000000, -270.000000,   1.368725, -35.147500, -61.047204,   0.822972,  -0.254284,   0.163144,  -0.481038, 
27814,  -0.388462,  -4.968484,   8.752295, -19.581112,   2.596153,  -3.458874,  -0.287455,   1.251538,  -0.212100, -417.000000, -36.000000, -270.000000,   1.369841, -35.363984, -61.083432,   0.822332,  -0.255779,   0.164139,  -0.480982, 
27815,  -0.273506,  -5.192907,   8.466638, -15.412756,   3.041238,  -4.039394,  -0.276938,   1.240037,  -0.215128, -411.000000, -40.500000, -270.000000,   1.367297, -35.488076, -61.127252,   0.821864,  -0.256616,   0.164739,  -0.481122, 
27816,  -0.158135,  -5.415361,   8.179806, -12.190612,   3.348868,  -4.478061,  -0.278915,   1.254884,  -0.198881, -412.500000, -34.500000, -265.500000,   1.354709, -35.562280, -61.177284,   0.821469,  -0.257129,   0.165073,  -0.481402, 
27817,  -0.281359,  -5.624182,   8.108645, -10.179225,   3.356219,  -4.454806,  -0.286892,   1.262401,  -0.196754, -417.000000, -31.500000, -265.500000,   1.353694, -35.642580, -61.231024,   0.821061,  -0.257631,   0.165524,  -0.481673, 
27818,  -0.199224,  -5.702671,   7.978384,  -9.460618,   3.130718,  -4.157897,  -0.290132,   1.260320,  -0.187356, -418.500000, -31.500000, -262.500000,   1.356833, -35.733976, -61.283352,   0.820638,  -0.258196,   0.166048,  -0.481908, 
27819,  -0.092776,  -5.783387,   7.828434,  -8.663851,   2.981776,  -3.931290,  -0.287234,   1.260772,  -0.187680, -417.000000, -31.500000, -262.500000,   1.340333, -35.833884, -61.332028,   0.820186,  -0.258911,   0.166460,  -0.482150, 
27820,  -0.232996,  -5.763423,   7.955009,  -8.525654,   2.814662,  -3.689054,  -0.279257,   1.253255,  -0.189807, -412.500000, -34.500000, -262.500000,   1.338597, -35.925092, -61.378280,   0.819784,  -0.259504,   0.166937,  -0.482353, 
27821,  -0.211917,  -5.839125,   7.872360,  -8.241636,   2.388662,  -3.171318,  -0.287951,   1.251901,  -0.188835, -417.000000, -34.500000, -262.500000,   1.339942, -36.014708, -61.419808,   0.819409,  -0.260079,   0.167418,  -0.482516, 
27822,  -0.163428,  -5.754659,   7.893108,  -7.827019,   2.547133,  -3.113651,  -0.295774,   1.257425,  -0.200898, -421.500000, -33.000000, -267.000000,   1.332877, -36.100588, -61.457972,   0.819045,  -0.260668,   0.167816,  -0.482681, 
27823,  -0.284327,  -5.756239,   7.946238,  -7.120069,   2.121419,  -2.737266,  -0.290320,   1.256699,  -0.192471, -418.500000, -33.000000, -264.000000,   1.337476, -36.171500, -61.493004,   0.818744,  -0.261104,   0.168228,  -0.482818, 
27824,  -0.144078,  -5.757510,   7.971939,  -6.726736,   1.986149,  -2.531301,  -0.283978,   1.265659,  -0.187426, -415.500000, -30.000000, -262.500000,   1.328075, -36.234060, -61.523976,   0.818460,  -0.261546,   0.168496,  -0.482970, 
27825,  -0.148948,  -5.603252,   8.004007,  -6.296089,   2.111557,  -2.554305,  -0.290524,   1.250272,  -0.207238, -418.500000, -36.000000, -268.500000,   1.317597, -36.271568, -61.553988,   0.818236,  -0.261815,   0.168648,  -0.483156, 
27826,  -0.271271,  -5.530297,   8.090228,  -5.659868,   2.503356,  -2.966780,  -0.283076,   1.237505,  -0.205405, -414.000000, -40.500000, -267.000000,   1.313080, -36.285928, -61.586840,   0.818059,  -0.261889,   0.168752,  -0.483380, 
27827,  -0.305263,  -5.372027,   8.253819,  -4.969444,   3.169024,  -3.922077,  -0.286283,   1.241038,  -0.176701, -415.500000, -37.500000, -258.000000,   1.315232, -36.267972, -61.627364,   0.817933,  -0.261692,   0.168784,  -0.483691, 
27828,  -0.430527,  -5.234632,   8.190488,  -4.228729,   4.038454,  -5.213582,  -0.282839,   1.249546,  -0.171333, -414.000000, -34.500000, -256.500000,   1.328385, -36.228700, -61.680740,   0.817816,  -0.261277,   0.168834,  -0.484099, 
27829,  -0.363296,  -5.248262,   8.240488,  -3.785503,   5.161911,  -6.832628,  -0.278882,   1.260497,  -0.179577, -412.500000, -31.500000, -259.500000,   1.337288, -36.177744, -61.753068,   0.817639,  -0.260770,   0.168847,  -0.484671, 
27830,  -0.410433,  -5.446975,   8.217247,  -3.574339,   6.377304,  -8.359767,  -0.291346,   1.251812,  -0.165246, -418.500000, -33.000000, -255.000000,   1.349038, -36.146212, -61.844744,   0.817342,  -0.260360,   0.169006,  -0.485345, 
27831,  -0.258817,  -5.438718,   8.106579,  -3.486310,   7.175994,  -9.474054,  -0.289507,   1.241764,  -0.157650, -417.000000, -36.000000, -252.000000,   1.355098, -36.122288, -61.954192,   0.816938,  -0.260001,   0.169195,  -0.486145, 
27832,  -0.212441,  -5.556118,   8.006714,  -3.609077,   7.916793, -10.406032,  -0.285533,   1.255522,  -0.156241, -415.500000, -31.500000, -252.000000,   1.352012, -36.122972, -62.075668,   0.816412,  -0.259839,   0.169451,  -0.487015, 
27833,  -0.211997,  -5.539957,   8.106859,  -3.452782,   8.528001, -11.233769,  -0.289945,   1.263941,  -0.182241, -418.500000, -30.000000, -261.000000,   1.346009, -36.120464, -62.208408,   0.815841,  -0.259649,   0.169698,  -0.487976, 
27834,  -0.253917,  -5.456335,   8.107195,  -3.424362,   9.306841, -12.197248,  -0.296474,   1.251361,  -0.192400, -421.500000, -34.500000, -264.000000,   1.343795, -36.105204, -62.351820,   0.815259,  -0.259336,   0.169941,  -0.489023, 
27835,  -0.264813,  -5.289261,   8.146767,  -3.145173,  10.542597, -13.770658,  -0.291037,   1.247828,  -0.193626, -418.500000, -36.000000, -264.000000,   1.333476, -36.071948, -62.510752,   0.814639,  -0.258908,   0.170085,  -0.490225, 
27836,  -0.216106,  -5.360053,   8.223476,  -2.860053,  11.771591, -15.504644,  -0.296645,   1.250546,  -0.187863, -421.500000, -34.500000, -262.500000,   1.330122, -36.029380, -62.690600,   0.813960,  -0.258353,   0.170285,  -0.491574, 
27837,  -0.207463,  -5.300773,   8.174925,  -2.733282,  13.342499, -17.519562,  -0.304793,   1.257248,  -0.181198, -426.000000, -31.500000, -261.000000,   1.326937, -35.987676, -62.894816,   0.813174,  -0.257768,   0.170544,  -0.493095, 
27838,  -0.498122,  -5.414335,   8.086516,  -2.482025,  14.597578, -19.387868,  -0.308050,   1.252361,  -0.181451, -427.500000, -33.000000, -261.000000,   1.341314, -35.956768, -63.123656,   0.812283,  -0.257147,   0.171027,  -0.494734, 
27839,  -0.393192,  -5.451791,   8.121503,  -2.659328,  15.895877, -20.919746,  -0.304964,   1.256434,  -0.176661, -426.000000, -31.500000, -259.500000,   1.335014, -35.945052, -63.373716,   0.811221,  -0.256718,   0.171493,  -0.496539, 
27840,  -0.377318,  -5.368003,   8.153548,  -2.315030,  16.645281, -22.086240,  -0.301691,   1.264127,  -0.166755, -424.500000, -28.500000, -256.500000,   1.351800, -35.910792, -63.639880,   0.810157,  -0.256001,   0.172057,  -0.498429, 
27841,  -0.129804,  -5.595678,   8.020680,  -2.368399,  17.954814, -23.490846,  -0.325438,   1.249652,  -0.179507, -436.500000, -33.000000, -261.000000,   1.337301, -35.912944, -63.922140,   0.808899,  -0.255654,   0.172593,  -0.500452, 
27842,  -0.363948,  -5.340519,   8.280551,  -2.408229,  18.899694, -24.875672,  -0.327823,   1.251644,  -0.192796, -438.000000, -33.000000, -265.500000,   1.347752, -35.878488, -64.222596,   0.807677,  -0.254912,   0.173186,  -0.502600, 
27843,  -0.091718,  -5.504887,   8.052304,  -2.370178,  19.906724, -26.249830,  -0.315872,   1.257886,  -0.193515, -432.000000, -31.500000, -265.500000,   1.343448, -35.864252, -64.539412,   0.806317,  -0.254354,   0.173799,  -0.504867, 
27844,  -0.273763,  -5.390290,   8.155485,  -2.036605,  21.259602, -27.701620,  -0.307316,   1.264039,  -0.170644, -427.500000, -28.500000, -258.000000,   1.346859, -35.847180, -64.875068,   0.804876,  -0.253708,   0.174491,  -0.507244, 
27845,  -0.316085,  -5.512332,   8.096070,  -1.625583,  21.813272, -28.844746,  -0.301862,   1.263313,  -0.162217, -424.500000, -28.500000, -255.000000,   1.362126, -35.822372, -65.227408,   0.803382,  -0.252926,   0.175265,  -0.509715, 
27846,  -0.312168,  -5.560817,   8.102558,  -1.005048,  22.750074, -29.769888,  -0.317973,   1.239692,  -0.168022, -432.000000, -36.000000, -256.500000,   1.369359, -35.809560, -65.592856,   0.801791,  -0.252243,   0.176064,  -0.512278, 
27847,  -0.158161,  -5.648711,   8.001548,  -0.948240,  23.182816, -30.362076,  -0.335003,   1.241419,  -0.165501, -441.000000, -34.500000, -256.500000,   1.369400, -35.800844, -65.968116,   0.800137,  -0.251607,   0.176852,  -0.514920, 
27848,  -0.271469,  -5.481737,   8.071046,  -0.476387,  23.844122, -31.302456,  -0.343852,   1.242056,  -0.150339, -445.500000, -33.000000, -252.000000,   1.375761, -35.785240, -66.352156,   0.798446,  -0.250874,   0.177667,  -0.517606, 
27849,  -0.251249,  -5.547926,   8.028659,  -0.701103,  24.418466, -32.165016,  -0.350006,   1.236718,  -0.150268, -448.500000, -34.500000, -252.000000,   1.383677, -35.761012, -66.747644,   0.796714,  -0.250053,   0.178475,  -0.520374, 
27850,  -0.125569,  -5.508411,   8.114608,  -0.525364,  25.470112, -33.449840,  -0.349339,   1.237169,  -0.178071, -448.500000, -36.000000, -261.000000,   1.374051, -35.750288, -67.155880,   0.794868,  -0.249386,   0.179250,  -0.523250, 
27851,  -0.163457,  -5.579661,   8.060571,  -0.085323,  26.352834, -34.595500,  -0.345586,   1.241693,  -0.201082, -447.000000, -36.000000, -268.500000,   1.379139, -35.724224, -67.580296,   0.792996,  -0.248520,   0.180090,  -0.526226, 
27852,  -0.016862,  -5.659953,   8.019118,  -0.019961,  27.520028, -35.949112,  -0.339773,   1.245403,  -0.192078, -444.000000, -34.500000, -265.500000,   1.365924, -35.715536, -68.022168,   0.790950,  -0.247821,   0.180913,  -0.529316, 
27853,  -0.141150,  -5.577336,   8.033002,   0.371525,  28.632044, -37.508976,  -0.343372,   1.238887,  -0.183256, -445.500000, -36.000000, -262.500000,   1.361446, -35.699900, -68.482200,   0.788848,  -0.247007,   0.181804,  -0.532523, 
27854,  -0.088518,  -5.696112,   7.917050,  -0.150575,  29.472312, -38.692100,  -0.351724,   1.239161,  -0.191359, -450.000000, -36.000000, -265.500000,   1.354404, -35.707012, -68.958720,   0.786611,  -0.246334,   0.182817,  -0.535810, 
27855,  -0.173374,  -5.784954,   7.893341,  -0.175831,  30.251000, -39.514036,  -0.357536,   1.235452,  -0.200364, -453.000000, -37.500000, -268.500000,   1.359646, -35.726556, -69.449776,   0.784262,  -0.245654,   0.183996,  -0.539124, 
27856,  -0.166108,  -6.001604,   7.757509,  -0.791012,  30.490378, -39.951700,  -0.370000,   1.226767,  -0.186033, -459.000000, -39.000000, -264.000000,   1.366553, -35.783968, -69.948592,   0.781797,  -0.245210,   0.185383,  -0.542427, 
27857,  -0.343906,  -5.804198,   7.809433,  -1.160299,  30.482178, -39.982024,  -0.378694,   1.225412,  -0.185061, -463.500000, -39.000000, -264.000000,   1.388097, -35.835624, -70.450384,   0.779343,  -0.244645,   0.186848,  -0.545717, 
27858,  -0.149261,  -6.073580,   7.657258,  -1.380753,  30.023820, -39.252844,  -0.382138,   1.216904,  -0.190429, -465.000000, -42.000000, -265.500000,   1.398582, -35.905940, -70.948536,   0.776820,  -0.244254,   0.188315,  -0.548955, 
27859,  -0.176673,  -5.975523,   7.737382,  -1.431099,  29.423448, -38.385072,  -0.392078,   1.201429,  -0.186652, -469.500000, -46.500000, -264.000000,   1.403000, -35.981912, -71.436552,   0.774326,  -0.243943,   0.189751,  -0.552126, 
27860,  -0.116644,  -6.054990,   7.757841,  -1.459285,  28.504124, -37.252924,  -0.391720,   1.205864,  -0.186075, -469.500000, -45.000000, -264.000000,   1.402434, -36.051032, -71.912224,   0.771882,  -0.243623,   0.191094,  -0.555224, 
27861,  -0.031841,  -5.957914,   7.803392,  -1.516161,  28.089924, -36.512456,  -0.395131,   1.202969,  -0.172138, -471.000000, -45.000000, -259.500000,   1.399585, -36.111840, -72.375536,   0.769491,  -0.243269,   0.192353,  -0.558240, 
27862,  -0.032483,  -5.859205,   7.792832,  -0.934404,  27.884448, -36.422664,  -0.406910,   1.197542,  -0.175957, -477.000000, -46.500000, -261.000000,   1.391652, -36.150592, -72.833528,   0.767165,  -0.242798,   0.193462,  -0.561267, 
27863,  -0.064676,  -5.850159,   7.764860,  -0.905773,  28.123034, -36.722716,  -0.406568,   1.199171,  -0.185032, -477.000000, -46.500000, -264.000000,   1.381517, -36.189656, -73.292384,   0.764817,  -0.242334,   0.194559,  -0.564293, 
27864,  -0.096831,  -5.739678,   7.847910,  -0.652919,  28.440654, -37.123324,  -0.406397,   1.199986,  -0.189570, -477.000000, -46.500000, -265.500000,   1.371546, -36.216404, -73.755320,   0.762451,  -0.241771,   0.195600,  -0.567349, 
27865,  -0.015560,  -5.935865,   7.669562,  -0.561327,  28.899482, -37.819108,  -0.413878,   1.207139,  -0.210708, -481.500000, -45.000000, -273.000000,   1.356629, -36.256828, -73.197776,   0.765105,  -0.243068,   0.194525,  -0.563606, 
27866,  -0.242894,  -5.889629,   7.769997,  -0.324029,  29.358820, -38.347920,  -0.418786,   1.215922,  -0.213442, -484.500000, -42.000000, -274.500000,   1.353142, -36.299900, -72.655600,   0.767657,  -0.244289,   0.193557,  -0.559908, 
27867,  -0.121233,  -6.066676,   7.697013,  -0.632345,  29.439492, -38.367284,  -0.422555,   1.208591,  -0.200083, -486.000000, -43.500000, -270.000000,   1.334565, -36.362200, -72.131856,   0.770049,  -0.245681,   0.192618,  -0.556333, 
27868,  -0.059887,  -5.984283,   7.744740,  -0.486655,  29.421722, -38.296372,  -0.425812,   1.203704,  -0.200337, -487.500000, -45.000000, -270.000000,   1.320371, -36.413604, -71.621512,   0.772396,  -0.246955,   0.191677,  -0.552850, 
27869,  -0.062633,  -6.082823,   7.601438,  -0.642409,  29.166804, -37.961260,  -0.431078,   1.208051,  -0.203649, -490.500000, -43.500000, -271.500000,   1.309287, -36.480812, -71.126392,   0.774607,  -0.248286,   0.190853,  -0.549415, 
27870,  -0.043432,  -6.169044,   7.600736,  -0.449456,  28.962648, -37.590472,  -0.436174,   1.213213,  -0.211498, -493.500000, -42.000000, -274.500000,   1.297561, -36.558672, -70.645504,   0.776725,  -0.249672,   0.190103,  -0.546062, 
27871,   0.015938,  -6.342397,   7.478044,  -0.629194,  28.365510, -36.923268,  -0.426983,   1.214204,  -0.235735, -489.000000, -43.500000, -282.000000,   1.286440, -36.656348, -70.191672,   0.778653,  -0.251140,   0.189501,  -0.542847, 
27872,  -0.036282,  -6.461216,   7.402295,  -0.920528,  27.656246, -35.808664,  -0.427325,   1.212575,  -0.226660, -489.000000, -43.500000, -279.000000,   1.279649, -36.780248, -69.742584,   0.780478,  -0.252753,   0.189050,  -0.539594, 
27873,  -0.079448,  -6.355653,   7.469979,  -1.388692,  26.796488, -34.824388,  -0.442516,   1.204253,  -0.216543, -496.500000, -45.000000, -276.000000,   1.275431, -36.892828, -69.294528,   0.782325,  -0.254278,   0.188558,  -0.536362, 
27874,  -0.021502,  -6.256249,   7.416709,  -2.046211,  26.174132, -33.889232,  -0.456463,   1.169407,  -0.233479, -502.500000, -57.000000, -280.500000,   1.259409, -37.006812, -69.726784,   0.780014,  -0.254416,   0.189943,  -0.539154, 
27875,   0.018105,  -6.125701,   7.604110,  -1.736238,  25.863698, -33.374962,  -0.462976,   1.159633,  -0.233986, -505.500000, -60.000000, -280.500000,   1.233365, -37.087400, -70.150184,   0.777805,  -0.254386,   0.191088,  -0.541963, 
27876,   0.095126,  -6.268277,   7.592849,  -1.562431,  25.704724, -33.265636,  -0.459173,   1.172576,  -0.228040, -504.000000, -55.500000, -279.000000,   1.208674, -37.160104, -70.570088,   0.775611,  -0.254293,   0.192197,  -0.544742, 
27877,   0.097364,  -6.188965,   7.555345,  -1.497934,  26.004640, -33.540020,  -0.465328,   1.167238,  -0.227970, -507.000000, -57.000000, -279.000000,   1.179917, -37.237684, -70.134144,   0.777462,  -0.255687,   0.191401,  -0.541726, 
27878,   0.017122,  -6.247701,   7.501986,  -1.695844,  26.050254, -33.600376,  -0.462446,   1.164883,  -0.237946, -505.500000, -58.500000, -282.000000,   1.158253, -37.311268, -69.719160,   0.779212,  -0.256979,   0.190671,  -0.538829, 
27879,  -0.048001,  -6.268018,   7.447715,  -2.222596,  26.037430, -33.640252,  -0.465361,   1.161625,  -0.247275, -507.000000, -60.000000, -285.000000,   1.146256, -37.403076, -69.333288,   0.780799,  -0.258303,   0.190154,  -0.536079, 
27880,  -0.079810,  -6.253729,   7.459947,  -2.917559,  25.867770, -33.303772,  -0.471686,   1.155472,  -0.242667, -510.000000, -61.500000, -283.500000,   1.137613, -37.504828, -68.963056,   0.782295,  -0.259655,   0.189736,  -0.533414, 
27881,  -0.114483,  -6.162355,   7.548013,  -3.672360,  25.459742, -32.831006,  -0.476936,   1.162625,  -0.236326, -513.000000, -58.500000, -282.000000,   1.131567, -37.593668, -68.584704,   0.783834,  -0.260914,   0.189246,  -0.530691, 
27882,  -0.232242,  -6.068391,   7.589954,  -4.287685,  25.491438, -32.707646,  -0.478979,   1.166246,  -0.258690, -514.500000, -58.500000, -289.500000,   1.123343, -37.674100, -68.207624,   0.785377,  -0.262123,   0.188701,  -0.527994, 
27883,  -0.045265,  -6.160553,   7.557974,  -4.702360,  25.509582, -32.825996,  -0.484075,   1.171408,  -0.266539, -517.500000, -57.000000, -292.500000,   1.109955, -37.758688, -67.847744,   0.786823,  -0.263360,   0.188174,  -0.525422, 
27884,  -0.167585,  -6.231086,   7.550194,  -5.462486,  25.654084, -32.743804,  -0.488561,   1.155206,  -0.254335, -519.000000, -61.500000, -288.000000,   1.108769, -37.859232, -67.511432,   0.788142,  -0.264612,   0.187854,  -0.522958, 
27885,  -0.176506,  -6.439688,   7.394707,  -5.933861,  25.308512, -32.495018,  -0.497084,   1.154666,  -0.257901, -523.500000, -61.500000, -289.500000,   1.112667, -37.993084, -67.202504,   0.789238,  -0.266020,   0.187774,  -0.520599, 
27886,  -0.229783,  -6.444484,   7.405585,  -6.580622,  24.808688, -31.561434,  -0.496897,   1.158287,  -0.252785, -523.500000, -60.000000, -288.000000,   1.127211, -38.136780, -66.899672,   0.790289,  -0.267437,   0.187818,  -0.518235, 
27887,  -0.123918,  -6.589865,   7.251783,  -7.127084,  23.874824, -30.413986,  -0.503067,   1.150142,  -0.262368, -526.500000, -63.000000, -291.000000,   1.128862, -38.302288, -66.603896,   0.791235,  -0.269055,   0.187883,  -0.515916, 
27888,  -0.178726,  -6.380705,   7.317484,  -8.092223,  23.399230, -29.523124,  -0.512429,   1.148336,  -0.233593, -531.000000, -61.500000, -282.000000,   1.131722, -38.464816, -66.304328,   0.792205,  -0.270657,   0.187928,  -0.513575, 
27889,  -0.066708,  -6.446397,   7.372964,  -9.100874,  22.947018, -28.719358,  -0.511883,   1.156393,  -0.227900, -531.000000, -58.500000, -280.500000,   1.117889, -38.614068, -65.976036,   0.793300,  -0.272291,   0.187723,  -0.511094, 
27890,  -0.013301,  -6.246339,   7.471662, -10.091908,  22.803502, -28.624522,  -0.508847,   1.152046,  -0.252067, -529.500000, -61.500000, -288.000000,   1.101317, -38.755064, -65.650040,   0.794381,  -0.273873,   0.187457,  -0.508640, 
27891,  -0.097946,  -6.302878,   7.377025, -11.436982,  22.929170, -28.621632,  -0.512633,   1.141909,  -0.248361, -531.000000, -64.500000, -286.500000,   1.085864, -38.897332, -65.346544,   0.795360,  -0.275425,   0.187252,  -0.506340, 
27892,  -0.113900,  -6.364413,   7.313257, -13.193879,  23.395328, -29.100730,  -0.529883,   1.134401,  -0.270259, -540.000000, -67.500000, -294.000000,   1.074704, -39.076992, -65.088372,   0.796055,  -0.277146,   0.187346,  -0.504285, 
27893,  -0.134104,  -6.550840,   7.190882, -15.574868,  23.553120, -29.081610,  -0.542534,   1.122095,  -0.261043, -546.000000, -70.500000, -291.000000,   1.068376, -39.288452, -64.873252,   0.796489,  -0.279000,   0.187712,  -0.502468, 
27894,  -0.277335,  -6.526085,   7.219863, -18.393310,  23.824564, -29.263524,  -0.538823,   1.107611,  -0.226546, -543.000000, -73.500000, -279.000000,   1.078046, -39.538736, -64.966844,   0.795477,  -0.280540,   0.189104,  -0.502679, 
27895,  -0.175756,  -6.682288,   7.104251, -21.238460,  23.638064, -28.741194,  -0.530317,   1.105345,  -0.232633, -538.500000, -75.000000, -280.500000,   1.081778, -39.818192, -65.340416,   0.793142,  -0.281836,   0.191272,  -0.504787, 
27896,  -0.253059,  -6.355058,   7.352358, -24.329112,  23.734588, -28.651684,  -0.531797,   1.119829,  -0.239652, -540.000000, -70.500000, -283.500000,   1.091919, -40.097348, -65.712152,   0.790830,  -0.283097,   0.193491,  -0.506863, 
27897,  -0.065216,  -6.421411,   7.350762, -26.301002,  24.050218, -28.702610,  -0.535037,   1.117748,  -0.230252, -541.500000, -70.500000, -280.500000,   1.076451, -40.371420, -66.083412,   0.788495,  -0.284429,   0.195522,  -0.509004, 
27898,  -0.117105,  -6.281350,   7.459061, -27.768744,  24.859240, -29.461564,  -0.544465,   1.104716,  -0.240088, -546.000000, -75.000000, -283.500000,   1.072786, -40.647444, -66.462028,   0.786114,  -0.285691,   0.197667,  -0.511139, 
27899,  -0.062853,  -6.378981,   7.408645, -29.111750,  26.075710, -30.507800,  -0.547379,   1.101458,  -0.249417, -547.500000, -76.500000, -286.500000,   1.053424, -40.925928, -66.853012,   0.783635,  -0.287007,   0.199756,  -0.513381, 
27900,  -0.074368,  -6.512837,   7.279812, -30.558848,  27.194824, -31.504698,  -0.549731,   1.109063,  -0.243400, -549.000000, -73.500000, -285.000000,   1.039627, -41.245940, -67.259032,   0.780984,  -0.288541,   0.202118,  -0.515627, 
27901,  -0.038159,  -6.660540,   7.184964, -31.848206,  27.862782, -31.933478,  -0.551725,   1.121104,  -0.236806, -550.500000, -69.000000, -283.500000,   1.027020, -41.582224, -67.677816,   0.778225,  -0.290144,   0.204606,  -0.517912, 
27902,  -0.113568,  -6.799937,   6.997226, -33.385528,  28.628846, -32.424172,  -0.543731,   1.116394,  -0.229281, -546.000000, -70.500000, -280.500000,   1.020928, -41.973624, -68.104936,   0.775285,  -0.292056,   0.207423,  -0.520119, 
27903,  -0.091325,  -6.772875,   7.013344, -35.590824,  28.803144, -32.384446,  -0.550432,   1.102999,  -0.234903, -549.000000, -75.000000, -282.000000,   1.012535, -42.366744, -68.536368,   0.772307,  -0.293965,   0.210259,  -0.522340, 
27904,  -0.133377,  -6.808125,   6.994711, -37.669852,  29.545154, -32.603038,  -0.554747,   1.087612,  -0.227236, -550.500000, -79.500000, -279.000000,   1.005195, -42.783300, -68.971680,   0.769235,  -0.295996,   0.213233,  -0.524519, 
27905,  -0.172907,  -6.715382,   7.098938, -39.136760,  30.461592, -33.229526,  -0.560510,   1.092322,  -0.207283, -553.500000, -76.500000, -273.000000,   0.998372, -43.186568, -69.415656,   0.766132,  -0.297894,   0.216186,  -0.526750, 
27906,  -0.218320,  -6.899953,   6.987524, -40.543904,  31.351476, -33.803612,  -0.568333,   1.097846,  -0.219346, -558.000000, -75.000000, -277.500000,   0.997548, -43.603656, -69.870272,   0.762961,  -0.299822,   0.219291,  -0.529001, 
27907,  -0.272419,  -7.030112,   6.870769, -41.842064,  32.038444, -33.997168,  -0.569766,   1.080104,  -0.221656, -558.000000, -81.000000, -277.500000,   1.003470, -44.071480, -70.333416,   0.759600,  -0.302009,   0.222710,  -0.531159, 
27908,  -0.272740,  -7.065372,   6.765694, -43.529864,  32.433728, -34.000040,  -0.566852,   1.083362,  -0.212328, -556.500000, -79.500000, -274.500000,   1.011843, -44.540116, -70.800728,   0.756194,  -0.304149,   0.226174,  -0.533301, 
27909,  -0.248987,  -7.154597,   6.710335, -45.458044,  32.875176, -33.778456,  -0.566681,   1.084177,  -0.216865, -556.500000, -79.500000, -276.000000,   1.018344, -45.046908, -71.269752,   0.752680,  -0.306526,   0.229833,  -0.535371, 
27910,  -0.212333,  -7.091022,   6.763175, -47.301500,  33.173340, -33.706440,  -0.570280,   1.077661,  -0.208044, -558.000000, -81.000000, -273.000000,   1.014920, -45.535984, -71.740224,   0.749158,  -0.308796,   0.233363,  -0.537475, 
27911,  -0.280132,  -7.126161,   6.739630, -48.771284,  33.906152, -33.709612,  -0.581309,   1.086718,  -0.191402, -564.000000, -76.500000, -268.500000,   1.014577, -46.042944, -72.214192,   0.745549,  -0.311128,   0.237022,  -0.539519, 
27912,  -0.258306,  -7.162955,   6.775768, -50.190640,  34.513896, -33.792780,  -0.584191,   1.089073,  -0.181426, -565.500000, -75.000000, -265.500000,   1.012111, -46.542592, -72.692328,   0.741934,  -0.313388,   0.240669,  -0.541593, 
27913,  -0.331884,  -7.104225,   6.814211, -50.749048,  35.305296, -34.106876,  -0.591404,   1.073234,  -0.173436, -568.500000, -79.500000, -262.500000,   1.018551, -47.039964, -73.176800,   0.738289,  -0.315545,   0.244395,  -0.543652, 
27914,  -0.356967,  -7.082859,   6.819350, -50.474904,  36.096024, -34.176836,  -0.594832,   1.067533,  -0.169152, -570.000000, -81.000000, -261.000000,   1.024189, -47.516544, -73.667888,   0.734643,  -0.317523,   0.248051,  -0.545763, 
27915,  -0.330313,  -7.235228,   6.711444, -49.422540,  36.601504, -34.008312,  -0.588865,   1.069250,  -0.174337, -567.000000, -81.000000, -262.500000,   1.033774, -48.001852, -74.164248,   0.730951,  -0.319500,   0.251809,  -0.547856, 
27916,  -0.314193,  -7.156896,   6.817847, -48.140960,  36.848792, -33.780932,  -0.592463,   1.062734,  -0.165516, -568.500000, -82.500000, -259.500000,   1.042515, -48.449536, -74.661080,   0.727336,  -0.321206,   0.255398,  -0.550000, 
27917,  -0.215793,  -7.339445,   6.575899, -46.565972,  37.255948, -33.469154,  -0.603509,   1.068985,  -0.158527, -574.500000, -79.500000, -258.000000,   1.047112, -48.901664, -75.158432,   0.723679,  -0.322928,   0.258997,  -0.552117, 
27918,  -0.255240,  -7.277916,   6.624040, -45.461088,  37.849888, -33.376804,  -0.612749,   1.059574,  -0.163248, -579.000000, -82.500000, -259.500000,   1.050717, -49.334116, -75.658456,   0.720061,  -0.324501,   0.262523,  -0.554281, 
27919,  -0.263890,  -7.173372,   6.670079, -44.664212,  38.496116, -33.635040,  -0.611269,   1.045089,  -0.156229, -577.500000, -87.000000, -256.500000,   1.049149, -49.725588, -76.163376,   0.716493,  -0.325796,   0.265841,  -0.556542, 
27920,  -0.325923,  -7.279066,   6.584627, -43.301624,  39.439028, -33.800536,  -0.602371,   1.052872,  -0.142434, -573.000000, -84.000000, -252.000000,   1.048904, -50.118824, -76.675480,   0.712873,  -0.327051,   0.269210,  -0.558814, 
27921,  -0.321625,  -7.243391,   6.633602, -41.505584,  40.017044, -33.999660,  -0.614492,   1.045815,  -0.137178, -579.000000, -85.500000, -250.500000,   1.050269, -50.479456, -77.194712,   0.709324,  -0.328062,   0.272471,  -0.561192, 
27922,  -0.291097,  -7.339623,   6.589043, -40.124936,  40.381832, -33.555396,  -0.625913,   1.044824,  -0.140419, -585.000000, -85.500000, -252.000000,   1.053453, -50.827552, -77.716280,   0.705767,  -0.328945,   0.275691,  -0.563565, 
27923,  -0.271689,  -7.302475,   6.519442, -37.561096,  40.420476, -33.348538,  -0.620272,   1.047719,  -0.126877, -582.000000, -84.000000, -247.500000,   1.061920, -51.151708, -78.237392,   0.702279,  -0.329630,   0.278835,  -0.565951, 
27924,  -0.333718,  -7.354128,   6.572977, -34.072080,  40.474268, -32.852726,  -0.622982,   1.050889,  -0.121438, -583.500000, -82.500000, -246.000000,   1.070543, -51.433960, -78.756008,   0.698931,  -0.330049,   0.281782,  -0.568415, 
