Standard output of YIS Manager:
  TID,     AccX,     AccY,     AccZ,    AngVX,    AngVY,    AngVZ,     MagX,     MagY,     MagZ, NormMagX, NormMagY, NormMagZ,    Pitch,     Roll,      Yaw,       q0,       q1,       q2,       q3, 
29122,   0.200827,   9.747321,   0.981131,  -0.170429,   0.215119,  -0.109801,   0.197461,  -0.922197,  -0.439975, -69.000000, -798.000000, -223.500000,  -0.984722,  84.585816,  34.154188,   0.705347,   0.645068,   0.191517,   0.222733, 
29123,   0.160012,   9.767761,   0.882874,  -0.110058,   0.232511,  -0.161044,   0.203787,  -0.916044,  -0.444583, -66.000000, -796.500000, -225.000000,  -0.983542,  84.585448,  34.127264,   0.705404,   0.645109,   0.191372,   0.222562, 
29124,   0.150021,   9.766453,   0.973094,  -0.144827,   0.206386,  -0.066159,   0.195297,  -0.910971,  -0.428844, -70.500000, -793.500000, -220.500000,  -0.982246,  84.582840,  34.103304,   0.705468,   0.645131,   0.191240,   0.222411, 
29125,   0.149486,   9.758816,   0.949478,  -0.067544,   0.206213,  -0.065311,   0.191544,  -0.915495,  -0.405832, -72.000000, -793.500000, -213.000000,  -0.981242,  84.577360,  34.095260,   0.705517,   0.645109,   0.191190,   0.222366, 
29126,   0.162990,   9.781893,   0.903561,  -0.161842,   0.215100,  -0.109706,   0.185748,  -0.916398,  -0.405184, -75.000000, -793.500000, -213.000000,  -0.980556,  84.580984,  34.078836,   0.705530,   0.645158,   0.191109,   0.222255, 
29127,   0.177642,   9.776977,   0.973307,   0.010554,   0.276855,  -0.132819,   0.186807,  -0.905898,  -0.413104, -75.000000, -790.500000, -216.000000,  -0.982537,  84.576080,  34.059168,   0.705593,   0.645165,   0.190977,   0.222153, 
29128,   0.129718,   9.745337,   0.931616,  -0.076001,   0.214995,  -0.091357,   0.186123,  -0.909156,  -0.394954, -75.000000, -790.500000, -210.000000,  -0.979233,  84.575232,  34.052136,   0.705617,   0.645165,   0.190956,   0.222093, 
29129,   0.139539,   9.788441,   0.929358,  -0.118717,   0.232751,  -0.117621,   0.185593,  -0.914406,  -0.390994, -75.000000, -792.000000, -208.500000,  -0.976570,  84.574096,  34.047952,   0.705636,   0.645160,   0.190947,   0.222054, 
29130,   0.186837,   9.751671,   0.896637,  -0.128222,   0.153103,  -0.040814,   0.192945,  -0.903366,  -0.422827, -72.000000, -790.500000, -219.000000,  -0.976554,  84.577472,  34.025128,   0.705662,   0.645219,   0.190825,   0.221908, 
29131,   0.131582,   9.748307,   0.919829,   0.018719,   0.241472,  -0.089843,   0.193987,  -0.895672,  -0.440400, -72.000000, -789.000000, -225.000000,  -0.973606,  84.578640,  33.988008,   0.705733,   0.645284,   0.190637,   0.221661, 
29132,   0.153314,   9.758308,   0.895801,  -0.084004,   0.268215,  -0.125311,   0.199987,  -0.888342,  -0.426280, -69.000000, -786.000000, -220.500000,  -0.972497,  84.582576,  33.970136,   0.705748,   0.645336,   0.190551,   0.221538, 
29133,   0.160340,   9.775901,   0.954292,  -0.127668,   0.206392,  -0.057267,   0.202731,  -0.885898,  -0.412414, -67.500000, -784.500000, -216.000000,  -0.973322,  84.578752,  33.969028,   0.705770,   0.645316,   0.190532,   0.221542, 
29134,   0.174685,   9.754009,   0.937269,  -0.109603,   0.295272,  -0.064192,   0.202543,  -0.889520,  -0.417529, -67.500000, -786.000000, -217.500000,  -0.975446,  84.577568,  33.964024,   0.705783,   0.645321,   0.190489,   0.221526, 
29135,   0.150719,   9.762953,   0.946539,  -0.059278,   0.179682,  -0.030879,   0.195501,  -0.904543,  -0.414076, -70.500000, -790.500000, -216.000000,  -0.974726,  84.576248,  33.953624,   0.705812,   0.645329,   0.190432,   0.221460, 
29136,   0.180441,   9.780673,   0.885986,  -0.102272,   0.170793,  -0.048917,   0.194955,  -0.912600,  -0.419769, -70.500000, -793.500000, -217.500000,  -0.973869,  84.581984,  33.936800,   0.705814,   0.645391,   0.190354,   0.221342, 
29137,   0.175187,   9.745121,   0.949070,   0.001224,   0.214999,  -0.055694,   0.195468,  -0.910156,  -0.433381, -70.500000, -793.500000, -222.000000,  -0.977420,  84.580944,  33.912324,   0.705862,   0.645433,   0.190192,   0.221213, 
29138,   0.177318,   9.780632,   0.914880,  -0.024520,   0.224175,  -0.012300,   0.198024,  -0.911334,  -0.424630, -69.000000, -793.500000, -219.000000,  -0.975795,  84.583992,  33.896192,   0.705879,   0.645476,   0.190117,   0.221100, 
29139,   0.163758,   9.760480,   0.976733,   0.010076,   0.250830,  -0.002742,   0.198382,  -0.906898,  -0.424053, -69.000000, -792.000000, -219.000000,  -0.977386,  84.580280,  33.883304,   0.705922,   0.645477,   0.190028,   0.221035, 
29140,   0.186707,   9.738647,   0.910791,   0.129972,   0.214887,  -0.019466,   0.191886,  -0.913866,  -0.414907, -72.000000, -793.500000, -216.000000,  -0.978639,  84.582048,  33.866232,   0.705944,   0.645519,   0.189927,   0.220934, 
29141,   0.153828,   9.761032,   0.948922,   0.113437,   0.180248,  -0.035735,   0.189176,  -0.910697,  -0.409468, -73.500000, -792.000000, -214.500000,  -0.979460,  84.582912,  33.853384,   0.705962,   0.645548,   0.189852,   0.220858, 
29142,   0.191707,   9.763476,   0.893140,   0.241646,   0.214503,  -0.044351,   0.190030,  -0.906624,  -0.432155, -73.500000, -792.000000, -222.000000,  -0.981999,  84.587416,  33.831624,   0.705975,   0.645617,   0.189722,   0.220731, 
29143,   0.155995,   9.766279,   0.946843,   0.129532,   0.250990,  -0.111661,   0.196511,  -0.902463,  -0.450954, -70.500000, -792.000000, -228.000000,  -0.981245,  84.589896,  33.797096,   0.706030,   0.645689,   0.189537,   0.220511, 
29144,   0.183264,   9.767616,   0.910195,   0.182004,   0.259031,  -0.061623,   0.194751,  -0.919027,  -0.434536, -70.500000, -796.500000, -222.000000,  -0.982460,  84.594656,  33.765684,   0.706063,   0.645773,   0.189362,   0.220316, 
29145,   0.160645,   9.747333,   0.957356,   0.083333,   0.219737,  -0.058573,   0.193099,  -0.905358,  -0.437017, -72.000000, -792.000000, -223.500000,  -0.982939,  84.597048,  33.738268,   0.706101,   0.645834,   0.189210,   0.220146, 
29146,   0.158684,   9.741178,   0.881075,   0.070387,   0.259237,  -0.071552,   0.184764,  -0.902277,  -0.435468, -76.500000, -790.500000, -223.500000,  -0.979431,  84.600160,  33.702492,   0.706157,   0.645905,   0.189035,   0.219900, 
29147,   0.161189,   9.752574,   0.961036,   0.029863,   0.211831,  -0.082511,   0.189297,  -0.918301,  -0.442963, -73.500000, -796.500000, -225.000000,  -0.978137,  84.599600,  33.663856,   0.706235,   0.645962,   0.188824,   0.219656, 
29148,   0.156886,   9.761824,   0.905273,  -0.084849,   0.197488,  -0.039548,   0.195672,  -0.903729,  -0.418614, -70.500000, -790.500000, -217.500000,  -0.977250,  84.600808,  33.639080,   0.706276,   0.646007,   0.188692,   0.219496, 
29149,   0.156635,   9.753743,   0.907495,  -0.062276,   0.156683,  -0.084506,   0.185188,  -0.886615,  -0.396280, -76.500000, -783.000000, -211.500000,  -0.976455,  84.603384,  33.628784,   0.706283,   0.646038,   0.188644,   0.219424, 
29150,   0.157281,   9.774707,   0.967252,  -0.007931,   0.161774,  -0.030632,   0.183583,  -0.905172,  -0.394052, -76.500000, -789.000000, -210.000000,  -0.974164,  84.600008,  33.621852,   0.706319,   0.646025,   0.188612,   0.219374, 
29151,   0.185965,   9.774604,   0.925039,   0.060706,   0.243394,  -0.081610,   0.194613,  -0.914229,  -0.410694, -70.500000, -793.500000, -214.500000,  -0.974272,  84.599144,  33.617088,   0.706333,   0.646027,   0.188583,   0.219346, 
29152,   0.159293,   9.767124,   0.909425,   0.086202,   0.116726,  -0.100019,   0.189859,  -0.907439,  -0.427618, -73.500000, -792.000000, -220.500000,  -0.975461,  84.600824,  33.602572,   0.706348,   0.646063,   0.188497,   0.219260, 
29153,   0.155480,   9.744276,   0.916922,   0.030161,   0.235358,  -0.120769,   0.192399,  -0.911423,  -0.428520, -72.000000, -793.500000, -220.500000,  -0.973763,  84.604744,  33.577868,   0.706376,   0.646124,   0.188376,   0.219092, 
29154,   0.178486,   9.791818,   0.934962,   0.070038,   0.232814,  -0.019808,   0.194067,  -0.922285,  -0.416386, -70.500000, -796.500000, -216.000000,  -0.974965,  84.603320,  33.563640,   0.706408,   0.646141,   0.188285,   0.219013, 
29155,   0.198005,   9.753500,   0.948721,   0.059916,   0.172500,  -0.028727,   0.189939,  -0.934051,  -0.403604, -72.000000, -799.500000, -211.500000,  -0.975509,  84.607424,  33.557932,   0.706395,   0.646176,   0.188257,   0.218974, 
29156,   0.130445,   9.769565,   0.931048,   0.241559,   0.205607,  -0.044510,   0.190810,  -0.927172,  -0.416640, -72.000000, -798.000000, -216.000000,  -0.977989,  84.608576,  33.551448,   0.706396,   0.646198,   0.188207,   0.218946, 
29157,   0.166716,   9.757878,   0.921737,   0.143760,   0.156378,  -0.051297,   0.195297,  -0.910971,  -0.428844, -70.500000, -793.500000, -220.500000,  -0.975554,  84.613512,  33.534138,   0.706405,   0.646252,   0.188134,   0.218817, 
29158,   0.165087,   9.775271,   0.964359,   0.447851,   0.222848,  -0.059337,   0.209412,  -0.915955,  -0.440693, -63.000000, -796.500000, -223.500000,  -0.976883,  84.609968,  33.522164,   0.706446,   0.646252,   0.188052,   0.218757, 
29159,   0.162683,   9.792061,   0.909664,   0.564569,   0.250131,  -0.083676,   0.211781,  -0.920754,  -0.437057, -61.500000, -798.000000, -222.000000,  -0.974749,  84.616992,  33.514226,   0.706424,   0.646304,   0.188033,   0.218684, 
29160,   0.284519,   9.827338,   0.986531,   1.064773,   0.088105,  -0.037529,   0.204162,  -0.908802,  -0.434353, -66.000000, -793.500000, -222.000000,  -0.983637,  84.615512,  33.511784,   0.706422,   0.646315,   0.187962,   0.218722, 
29161,   0.036632,   9.843794,   1.046727,   1.762661,   0.207546,  -0.140857,   0.203974,  -0.912423,  -0.439468, -66.000000, -795.000000, -223.500000,  -0.976234,  84.623712,  33.496902,   0.706416,   0.646376,   0.187939,   0.218575, 
29162,   0.279138,   9.865104,   1.028418,   2.980308,   0.146033,  -0.024101,   0.196185,  -0.901285,  -0.432226, -70.500000, -790.500000, -222.000000,  -0.987812,  84.630296,  33.486626,   0.706378,   0.646455,   0.187822,   0.218565, 
29163,   0.095782,   9.875536,   1.079715,   4.334099,   0.139216,   0.025503,   0.196356,  -0.900471,  -0.436764, -70.500000, -790.500000, -223.500000,  -0.986439,  84.652808,  33.466794,   0.706291,   0.646622,   0.187761,   0.218398, 
29164,   0.223520,   9.851816,   0.986093,   5.564899,   0.122215,  -0.039566,   0.195468,  -0.910156,  -0.433381, -70.500000, -793.500000, -222.000000,  -0.988264,  84.692088,  33.446038,   0.706104,   0.646900,   0.187707,   0.218216, 
29165,   0.133674,   9.852874,   1.036965,   6.639459,   0.157802,   0.058965,   0.196731,  -0.893229,  -0.426534, -70.500000, -787.500000, -220.500000,  -0.989689,  84.739336,  33.429436,   0.705865,   0.647220,   0.187694,   0.218044, 
29166,   0.190506,   9.894972,   1.049024,   7.840124,   0.090637,   0.028451,   0.199099,  -0.898027,  -0.422898, -69.000000, -789.000000, -219.000000,  -0.993311,  84.794512,  33.420104,   0.705564,   0.647581,   0.187724,   0.217916, 
29167,   0.160601,   9.936981,   1.084830,   9.660324,   0.059815,   0.039253,   0.196014,  -0.902100,  -0.427689, -70.500000, -790.500000, -220.500000,  -0.997085,  84.858904,  33.410774,   0.705210,   0.647998,   0.187770,   0.217774, 
29168,   0.223910,   8.501880,  -1.107546,   2.903386,   0.163424,  -0.137778,   0.190047,  -0.903818,  -0.422503, -73.500000, -790.500000, -219.000000,  -0.996274,  84.940264,  33.345170,   0.704873,   0.648603,   0.187558,   0.217232, 
29169,   0.422621,   9.299582,   0.713955,   0.929591,   0.338261,   0.113375,   0.189672,  -0.911060,  -0.432733, -73.500000, -793.500000, -222.000000,  -1.013303,  84.948824,  33.330308,   0.704823,   0.648711,   0.187384,   0.217222, 
29170,   0.190073,   9.730197,   0.679465,   0.739533,   0.195548,  -0.047906,   0.198537,  -0.908890,  -0.438243, -69.000000, -793.500000, -223.500000,  -1.004054,  84.951496,  33.300690,   0.704880,   0.648758,   0.187279,   0.216983, 
29171,   0.194467,   9.736242,   0.914978,   0.490889,   0.231604,  -0.067411,   0.196185,  -0.901285,  -0.432226, -70.500000, -790.500000, -222.000000,  -1.005152,  84.957472,  33.277230,   0.704888,   0.648835,   0.187150,   0.216836, 
29172,   0.185489,   9.731820,   0.770318,   0.696453,   0.186925,  -0.013722,   0.187149,  -0.904269,  -0.422179, -75.000000, -790.500000, -219.000000,  -1.005296,  84.963952,  33.253704,   0.704896,   0.648913,   0.187029,   0.216681, 
29173,   0.162030,   9.798509,   0.868746,   0.748882,   0.284845,   0.023406,   0.189159,  -0.913503,  -0.419121, -73.500000, -793.500000, -217.500000,  -1.003614,  84.973440,  33.230618,   0.704888,   0.649006,   0.186926,   0.216514, 
29174,   0.208574,   9.808848,   0.926936,   0.997319,   0.212762,  -0.044760,   0.189143,  -0.916310,  -0.428773, -73.500000, -795.000000, -220.500000,  -1.007167,  84.977488,  33.210450,   0.704897,   0.649070,   0.186797,   0.216403, 
29175,   0.035074,   9.738918,   0.776874,   1.231244,   0.425840,  -0.020992,   0.183705,  -0.912777,  -0.427548, -76.500000, -793.500000, -220.500000,  -0.990907,  85.004152,  33.172780,   0.704845,   0.649266,   0.186735,   0.216036, 
29176,  -0.028136,   9.817060,   0.523275,   1.634238,   1.234466,  -0.010889,   0.185560,  -0.920019,  -0.410299, -75.000000, -795.000000, -214.500000,  -0.959637,  85.053528,  33.134750,   0.704690,   0.649575,   0.186805,   0.215545, 
29177,  -0.045485,   9.783278,   0.613418,   1.684117,   1.964614,   0.150582,   0.194784,  -0.913414,  -0.415231, -70.500000, -793.500000, -216.000000,  -0.928741,  85.106656,  33.114918,   0.704479,   0.649878,   0.186983,   0.215162, 
29178,  -0.034695,   9.770263,   0.597555,   1.975830,   2.809076,   0.160096,   0.189346,  -0.909882,  -0.414006, -73.500000, -792.000000, -216.000000,  -0.896204,  85.156272,  33.103672,   0.704274,   0.650143,   0.187213,   0.214828, 
29179,  -0.014387,   9.837373,   0.692178,   2.249642,   3.591657,   0.237937,   0.187011,  -0.899470,  -0.398337, -75.000000, -787.500000, -211.500000,  -0.869596,  85.202128,  33.103942,   0.704060,   0.650377,   0.187465,   0.214605, 
29180,  -0.014796,   9.802076,   0.607168,   2.859032,   4.435538,   0.277049,   0.190096,  -0.895398,  -0.393546, -73.500000, -786.000000, -210.000000,  -0.842164,  85.256176,  33.117592,   0.703775,   0.650638,   0.187813,   0.214445, 
29181,  -0.069432,   9.816407,   0.646901,   3.390485,   5.235776,   0.445071,   0.203682,  -0.905632,  -0.401436, -66.000000, -790.500000, -211.500000,  -0.812379,  85.308744,  33.148056,   0.703472,   0.650858,   0.188268,   0.214378, 
29182,  -0.054548,   9.921515,   0.656527,   4.207193,   6.212904,   0.541052,   0.214932,  -0.905455,  -0.393657, -60.000000, -790.500000, -208.500000,  -0.782049,  85.373944,  33.199924,   0.703058,   0.651119,   0.188872,   0.214418, 
29183,  -0.060028,   9.907349,   0.659427,   5.411265,   7.277905,   0.599347,   0.209869,  -0.894681,  -0.382201, -63.000000, -786.000000, -205.500000,  -0.753580,  85.444160,  33.273152,   0.702573,   0.651380,   0.189595,   0.214591, 
29184,  -0.164246,   9.867110,   0.598426,   6.746583,   8.591758,   0.672212,   0.206938,  -0.900745,  -0.401182, -64.500000, -789.000000, -211.500000,  -0.711716,  85.532136,  33.341136,   0.702021,   0.651733,   0.190405,   0.214625, 
29185,  -0.187815,   9.894502,   0.538662,   8.047467,   9.915112,   0.849302,   0.204382,  -0.899568,  -0.409933, -66.000000, -789.000000, -214.500000,  -0.668831,  85.632768,  33.404812,   0.701408,   0.652170,   0.191220,   0.214606, 
29186,  -0.163044,   9.925736,   0.530016,   9.332520,  11.362700,   0.958801,   0.193508,  -0.892503,  -0.407482, -72.000000, -786.000000, -214.500000,  -0.628091,  85.748656,  33.468608,   0.700704,   0.652703,   0.192052,   0.214573, 
29187,  -0.164590,   9.892574,   0.570113,  10.478923,  12.686136,   1.081973,   0.194801,  -0.910608,  -0.405579, -70.500000, -792.000000, -213.000000,  -0.592969,  85.870176,  33.542526,   0.699935,   0.653258,   0.192916,   0.214621, 
29188,  -0.187282,   9.951075,   0.620738,  12.021877,  14.150584,   1.124989,   0.193725,  -0.923914,  -0.407311, -70.500000, -796.500000, -213.000000,  -0.555694,  86.000632,  33.629232,   0.699093,   0.653840,   0.193883,   0.214718, 
29189,  -0.097178,   9.954337,   0.576559,  13.511311,  15.428814,   1.259839,   0.188304,  -0.917576,  -0.396433, -73.500000, -793.500000, -210.000000,  -0.525160,  86.148904,  33.727376,   0.698116,   0.654522,   0.194908,   0.214891, 
29190,  -0.146798,   9.905060,   0.490582,  15.181612,  16.759966,   1.388919,   0.191235,  -0.911511,  -0.377452, -72.000000, -790.500000, -204.000000,  -0.491745,  86.318560,  33.841768,   0.696987,   0.655294,   0.196082,   0.215106, 
29191,  -0.183175,   9.909075,   0.317395,  16.910866,  17.957060,   1.420535,   0.193587,  -0.919116,  -0.383469, -70.500000, -793.500000, -205.500000,  -0.459523,  86.505312,  33.972252,   0.695725,   0.656142,   0.197375,   0.215393, 
29192,  -0.150681,   9.970914,   0.360171,  18.683610,  19.225666,   1.540930,   0.198495,  -0.927899,  -0.380734, -67.500000, -796.500000, -204.000000,  -0.431106,  86.702176,  34.123008,   0.694363,   0.657022,   0.198781,   0.215804, 
29193,  -0.111251,   9.944756,   0.357497,  20.473000,  20.422534,   1.555798,   0.209574,  -0.928536,  -0.368417, -61.500000, -796.500000, -199.500000,  -0.405805,  86.915936,  34.306284,   0.692837,   0.657952,   0.200390,   0.216397, 
29194,  -0.152091,   9.965579,   0.371829,  22.048776,  21.819404,   1.541889,   0.212130,  -0.929713,  -0.359667, -60.000000, -796.500000, -196.500000,  -0.376877,  87.151176,  34.504452,   0.691170,   0.658977,   0.202151,   0.217017, 
29195,  -0.158326,  10.005205,   0.367220,  23.882420,  23.056806,   1.579239,   0.191502,  -0.934503,  -0.348324, -70.500000, -796.500000, -193.500000,  -0.352305,  87.402352,  34.695768,   0.689402,   0.660102,   0.203875,   0.217582, 
29196,  -0.159417,  10.008121,   0.391738,  26.027152,  24.277078,   1.497870,   0.190239,  -0.951430,  -0.355171, -70.500000, -802.500000, -195.000000,  -0.327108,  87.666816,  34.887800,   0.687557,   0.661300,   0.205637,   0.218118, 
29197,  -0.254570,   9.993904,   0.298626,  28.622466,  25.643394,   1.572977,   0.200008,  -0.936769,  -0.354411, -66.000000, -798.000000, -195.000000,  -0.294108,  87.956448,  35.095436,   0.685554,   0.662604,   0.207588,   0.218651, 
29198,  -0.114517,  10.054351,   0.289809,  31.565484,  27.015818,   1.452821,   0.192048,  -0.926447,  -0.342631, -70.500000, -793.500000, -192.000000,  -0.276575,  88.270672,  35.314188,   0.683351,   0.664051,   0.209560,   0.219285, 
29199,  -0.255073,  10.010121,   0.158764,  34.467516,  28.786910,   1.379911,   0.190272,  -0.945817,  -0.335866, -70.500000, -799.500000, -189.000000,  -0.241577,  88.610800,  35.541060,   0.681013,   0.665596,   0.211738,   0.219809, 
29200,  -0.208283,   9.882516,  -0.032580,  36.676896,  30.569644,   1.340192,   0.195726,  -0.946544,  -0.327439, -67.500000, -799.500000, -186.000000,  -0.210508,  88.992992,  35.788416,   0.678361,   0.667333,   0.214091,   0.220382, 
29201,  -0.202864,   9.851581,  -0.181479,  37.971704,  32.291890,   1.237105,   0.193048,  -0.937761,  -0.302695, -69.000000, -795.000000, -178.500000,  -0.180608,  89.402392,  36.061264,   0.675505,   0.669182,   0.216648,   0.221050, 
29202,  -0.160563,   9.783393,  -0.220095,  38.191472,  33.941316,   1.099607,   0.186585,  -0.939116,  -0.274245, -72.000000, -793.500000, -169.500000,  -0.155467,  89.823896,  36.358408,   0.672527,   0.671060,   0.219352,   0.221853, 
29203,  -0.171488,   9.734796,  -0.367817,  38.098608,  35.509900,   0.860529,   0.191868,  -0.940656,  -0.261280, -69.000000, -793.500000, -165.000000,  -0.132526,  90.250680,  36.680008,   0.669446,   0.672897,   0.222201,   0.222780, 
29204,  -0.179597,   9.703043,  -0.469473,  37.222096,  36.953824,   0.631877,   0.195654,  -0.930519,  -0.264987, -67.500000, -790.500000, -166.500000,  -0.111364,  90.675008,  37.007900,   0.666342,   0.674677,   0.225075,   0.223734, 
29205,  -0.138006,   9.665305,  -0.568860,  36.185860,  38.260632,   0.383558,   0.195295,  -0.934955,  -0.265564, -67.500000, -792.000000, -166.500000,  -0.097816,  91.091488,  37.341264,   0.663264,   0.676411,   0.227935,   0.224766, 
29206,  -0.099789,   9.655732,  -0.624713,  34.851784,  39.558424,   0.172411,   0.178858,  -0.957397,  -0.252642, -75.000000, -798.000000, -162.000000,  -0.079391,  91.498112,  37.667976,   0.660266,   0.678080,   0.230775,   0.225734, 
29207,  -0.113583,   9.746767,  -0.575705,  33.551342,  40.959376,  -0.145802,   0.184329,  -0.955317,  -0.234562, -72.000000, -796.500000, -156.000000,  -0.068636,  91.883176,  38.026528,   0.657297,   0.679544,   0.233721,   0.226950, 
29208,  -0.172488,   9.690740,  -0.647789,  32.223834,  42.320772,  -0.480488,   0.192526,  -0.953600,  -0.212269, -67.500000, -795.000000, -148.500000,  -0.054140,  92.255752,  38.418184,   0.654328,   0.680834,   0.236866,   0.228338, 
29209,  -0.174882,   9.640807,  -0.661808,  30.693102,  43.595912,  -0.765761,   0.188757,  -0.960930,  -0.198910, -69.000000, -796.500000, -144.000000,  -0.038667,  92.614856,  38.820384,   0.651426,   0.682018,   0.240065,   0.229792, 
29210,  -0.108976,   9.717490,  -0.765330,  29.385964,  44.712436,  -1.041719,   0.191125,  -0.965728,  -0.195274, -67.500000, -798.000000, -142.500000,  -0.033025,  92.951192,  39.237192,   0.648605,   0.683045,   0.243260,   0.231417, 
29211,  -0.075279,   9.710623,  -0.606723,  28.490846,  45.724540,  -1.256974,   0.194023,  -0.965277,  -0.195598, -66.000000, -798.000000, -142.500000,  -0.030092,  93.261280,  39.664208,   0.645887,   0.683868,   0.246448,   0.233145, 
29212,  -0.079820,   9.771295,  -0.669076,  27.947728,  46.618804,  -1.549738,   0.187714,  -0.968624,  -0.181338, -69.000000, -798.000000, -138.000000,  -0.026753,  93.563152,  40.098008,   0.643200,   0.684614,   0.249672,   0.234909, 
29213,  -0.094978,   9.715117,  -0.756178,  27.428528,  47.628016,  -1.774441,   0.187747,  -0.963010,  -0.162033, -69.000000, -795.000000, -132.000000,  -0.029661,  93.854208,  40.555864,   0.640519,   0.685255,   0.252995,   0.236856, 
29214,  -0.058368,   9.709422,  -0.774926,  26.386222,  48.423044,  -1.983570,   0.187764,  -0.960204,  -0.152380, -69.000000, -793.500000, -129.000000,  -0.035582,  94.137864,  41.024628,   0.637842,   0.685814,   0.256357,   0.238878, 
29215,  -0.013402,   9.683567,  -0.809887,  25.682756,  49.035360,  -2.203817,   0.183994,  -0.967534,  -0.139021, -70.500000, -795.000000, -124.500000,  -0.050171,  94.401128,  41.506532,   0.635216,   0.686212,   0.259709,   0.241046, 
29216,  -0.035283,   9.754480,  -0.762657,  25.201056,  49.664256,  -2.562506,   0.180958,  -0.963188,  -0.114854, -72.000000, -792.000000, -117.000000,  -0.059215,  94.650672,  42.009272,   0.632639,   0.686467,   0.263198,   0.243313, 
29217,  -0.058538,   9.771192,  -0.800131,  24.881348,  50.386232,  -2.815256,   0.180070,  -0.972873,  -0.111472, -72.000000, -795.000000, -115.500000,  -0.067200,  94.894088,  42.512756,   0.630083,   0.686655,   0.266688,   0.245570, 
29218,  -0.014997,   9.775381,  -0.747803,  24.947930,  51.014920,  -2.966775,   0.182968,  -0.972422,  -0.111796, -70.500000, -795.000000, -115.500000,  -0.079807,  95.128824,  43.022668,   0.627547,   0.686773,   0.270179,   0.247893, 
29219,   0.018601,   9.899939,  -0.609435,  25.596924,  51.467688,  -3.240713,   0.182814,  -0.970430,  -0.097606, -70.500000, -793.500000, -111.000000,  -0.100721,  95.345552,  43.553228,   0.625057,   0.686758,   0.273721,   0.250409, 
29220,   0.038154,   9.896816,  -0.562078,  26.912820,  51.632488,  -3.475674,   0.184840,  -0.976857,  -0.084895, -69.000000, -795.000000, -106.500000,  -0.127457,  95.561816,  44.099168,   0.622493,   0.686675,   0.277320,   0.253019, 
29221,   0.074886,   9.838368,  -0.671025,  28.486654,  51.850696,  -3.585003,   0.187054,  -0.979664,  -0.067069, -67.500000, -795.000000, -100.500000,  -0.151900,  95.794064,  44.660200,   0.619794,   0.686620,   0.281064,   0.255640, 
29222,   0.061203,   9.853796,  -0.675838,  29.460334,  52.122348,  -3.952380,   0.184002,  -0.978123,  -0.052555, -69.000000, -793.500000, -96.000000,  -0.178817,  96.041720,  45.228384,   0.616966,   0.686609,   0.284876,   0.258254, 
29223,   0.057876,   9.783756,  -0.819910,  30.355086,  52.243432,  -4.227569,   0.173753,  -0.989615,  -0.020398, -73.500000, -795.000000, -85.500000,  -0.206230,  96.301592,  45.812248,   0.614010,   0.686597,   0.288812,   0.260900, 
29224,   0.025571,   9.791576,  -0.823687,  30.865462,  52.551580,  -4.625510,   0.176479,  -0.989977,  -0.016185, -72.000000, -795.000000, -84.000000,  -0.227080,  96.567880,  46.396564,   0.611036,   0.686598,   0.292817,   0.263477, 
29225,   0.072194,   9.806332,  -0.915395,  31.572204,  52.771120,  -4.866209,   0.179565,  -0.985905,  -0.011394, -70.500000, -793.500000, -82.500000,  -0.249599,  96.842448,  46.984532,   0.607968,   0.686589,   0.296851,   0.266030, 
29226,   0.058857,   9.812218,  -0.873588,  32.381398,  52.918952,  -5.167974,   0.176170,  -0.985994,   0.012194, -72.000000, -792.000000, -75.000000,  -0.275838,  97.116376,  47.592536,   0.604846,   0.686522,   0.300997,   0.268693, 
29227,   0.019038,   9.796009,  -0.968913,  33.371674,  53.146532,  -5.448922,   0.166947,  -0.992598,   0.017126, -76.500000, -793.500000, -73.500000,  -0.293165,  97.403880,  48.186332,   0.601669,   0.686494,   0.305136,   0.271158, 
29228,   0.157418,   9.748254,  -1.012176,  34.343468,  53.222336,  -5.845907,   0.165358,  -1.008348,   0.029006, -76.500000, -798.000000, -69.000000,  -0.327889,  97.694408,  48.789332,   0.598397,   0.686476,   0.309255,   0.273743, 
29229,   0.096292,   9.804773,  -1.082823,  35.314936,  53.271672,  -6.199854,   0.174289,  -0.994953,   0.062107, -72.000000, -792.000000, -58.500000,  -0.349289,  97.999272,  49.427456,   0.594985,   0.686386,   0.313700,   0.276367, 
29230,   0.218581,   9.727974,  -1.044193,  36.148072,  53.250856,  -6.417321,   0.172108,  -0.986534,   0.063586, -73.500000, -789.000000, -58.500000,  -0.390083,  98.293760,  50.069368,   0.591551,   0.686238,   0.318046,   0.279123, 
29231,   0.179441,   9.734203,  -1.131235,  36.885656,  53.096144,  -6.768764,   0.168135,  -1.000291,   0.062177, -75.000000, -793.500000, -58.500000,  -0.415857,  98.612488,  50.686468,   0.588068,   0.686225,   0.322392,   0.281566, 
29232,   0.176958,   9.684649,  -1.170238,  37.315064,  53.039980,  -7.121854,   0.170895,  -0.995041,   0.085696, -73.500000, -790.500000, -51.000000,  -0.448651,  98.933016,  51.327488,   0.584457,   0.686111,   0.326845,   0.284126, 
29233,   0.140082,   9.751211,  -1.292632,  37.390852,  52.842768,  -7.385611,   0.174184,  -0.984542,   0.105255, -72.000000, -786.000000, -45.000000,  -0.471366,  99.263168,  51.980936,   0.580796,   0.685978,   0.331468,   0.286640, 
29234,   0.246784,   9.678010,  -1.248214,  37.465072,  52.457884,  -7.818076,   0.168405,  -0.982638,   0.115555, -75.000000, -784.500000, -42.000000,  -0.512123,  99.573968,  52.640956,   0.577150,   0.685720,   0.335990,   0.289309, 
29235,   0.189710,   9.822562,  -1.319361,  38.448224,  51.992444,  -7.937356,   0.164652,  -0.987162,   0.138566, -76.500000, -784.500000, -34.500000,  -0.536243,  99.897168,  53.305552,   0.573471,   0.685454,   0.340671,   0.291841, 
29236,   0.222173,   9.802171,  -1.229428,  39.948908,  51.720368,  -8.282477,   0.163968,  -0.990420,   0.156716, -76.500000, -784.500000, -28.500000,  -0.574064, 100.212560,  53.988088,   0.569710,   0.685063,   0.345361,   0.294520, 
29237,   0.148096,   9.845871,  -1.368639,  41.965532,  51.509096,  -8.681758,   0.154932,  -0.993404,   0.166763, -81.000000, -784.500000, -25.500000,  -0.604514, 100.548656,  54.659944,   0.565876,   0.684769,   0.350094,   0.297012, 
29238,   0.200768,   9.808482,  -1.397780,  43.706208,  51.210360,  -8.911572,   0.154965,  -0.987790,   0.186068, -81.000000, -781.500000, -19.500000,  -0.634232, 100.905432,  55.344480,   0.561867,   0.684492,   0.354964,   0.299458, 
29239,   0.222487,   9.699960,  -1.558807,  45.292008,  50.857932,  -9.274589,   0.161323,  -0.976025,   0.200766, -78.000000, -777.000000, -15.000000,  -0.668209, 101.285576,  56.041068,   0.557672,   0.684276,   0.359962,   0.301883, 
29240,   0.189120,   9.526235,  -1.808223,  46.283848,  50.401328,  -9.402319,   0.160794,  -0.981274,   0.204725, -78.000000, -778.500000, -13.500000,  -0.686275, 101.704368,  56.714452,   0.553322,   0.684208,   0.364993,   0.303923, 
29241,   0.291545,   9.515184,  -1.808647,  45.853020,  50.159344,  -9.950948,   0.158196,  -0.999105,   0.253483, -78.000000, -781.500000,   3.000000,  -0.721751, 102.130040,  57.417452,   0.548796,   0.684095,   0.370153,   0.306151, 
29242,   0.276217,   9.484692,  -1.902619,  44.966832,  49.919144, -10.356610,   0.147167,  -0.990048,   0.270124, -84.000000, -777.000000,   7.500000,  -0.744149, 102.546032,  58.125740,   0.544342,   0.683837,   0.375391,   0.308311, 
29243,   0.250210,   9.466083,  -2.007284,  44.147320,  49.492532, -10.651711,   0.143926,  -0.992129,   0.279523, -85.500000, -777.000000,  10.500000,  -0.765104, 102.963728,  58.825916,   0.539889,   0.683558,   0.380596,   0.310369, 
29244,   0.222638,   9.622701,  -1.958399,  43.815572,  48.923376, -10.769914,   0.151344,  -0.969862,   0.286300, -82.500000, -769.500000,  12.000000,  -0.785639, 103.360832,  59.530572,   0.535530,   0.683111,   0.385775,   0.312466, 
29245,   0.310231,   9.699294,  -2.026744,  43.440340,  48.227688, -11.299881,   0.154446,  -0.962983,   0.300743, -81.000000, -766.500000,  16.500000,  -0.824221, 103.743464,  60.248728,   0.531158,   0.682569,   0.390925,   0.314744, 
29246,   0.272088,   9.413055,  -2.139355,  43.657464,  47.604444, -11.308561,   0.138555,  -0.977370,   0.319358, -88.500000, -769.500000,  22.500000,  -0.852934, 104.134432,  60.959952,   0.526771,   0.682010,   0.396104,   0.316855, 
29247,   0.287723,   9.385781,  -2.335847,  43.043484,  46.952764, -11.457449,   0.138759,  -0.970943,   0.334126, -88.500000, -766.500000,  27.000000,  -0.875211, 104.538216,  61.663204,   0.522336,   0.681468,   0.401303,   0.318800, 
29248,   0.234517,   9.591530,  -2.381480,  41.893104,  46.244776, -11.839519,   0.147111,  -0.971217,   0.342229, -84.000000, -766.500000,  30.000000,  -0.906071, 104.934376,  62.367728,   0.517900,   0.680861,   0.406451,   0.320781, 
29249,   0.326345,   9.343058,  -2.325621,  40.807484,  45.390164, -11.873433,   0.145476,  -0.954741,   0.349400, -85.500000, -760.500000,  31.500000,  -0.936867, 105.309776,  63.073884,   0.513585,   0.680126,   0.411566,   0.322806, 
29250,   0.303520,   9.440674,  -2.441856,  40.187872,  44.823848, -12.144641,   0.142936,  -0.950757,   0.350302, -87.000000, -759.000000,  31.500000,  -0.962804, 105.672728,  63.770956,   0.509362,   0.679291,   0.416605,   0.324756, 
29251,   0.310513,   9.388187,  -2.549708,  39.062704,  44.111376, -12.232549,   0.138996,  -0.958902,   0.368198, -88.500000, -760.500000,  37.500000,  -0.986017, 106.042656,  64.454668,   0.505140,   0.678491,   0.421602,   0.326565, 
29252,   0.299500,   9.344064,  -2.595984,  37.974680,  43.298104, -12.300565,   0.135789,  -0.955370,   0.396902, -90.000000, -757.500000,  46.500000,  -1.010907, 106.393648,  65.150748,   0.500978,   0.677521,   0.426611,   0.328467, 
29253,   0.344450,   9.459492,  -2.551505,  37.390856,  42.525160, -12.371980,   0.133079,  -0.952200,   0.402341, -91.500000, -756.000000,  48.000000,  -1.037443, 106.726392,  65.856376,   0.496890,   0.676412,   0.431626,   0.330454, 
29254,   0.281529,   9.538975,  -2.504510,  37.735568,  41.660852, -12.497643,   0.135805,  -0.952563,   0.406555, -90.000000, -756.000000,  49.500000,  -1.068049, 107.030168,  66.563524,   0.492931,   0.675127,   0.436539,   0.332534, 
29255,   0.322710,   9.528807,  -2.492865,  38.687512,  40.861112, -12.480090,   0.132427,  -0.949845,   0.439796, -91.500000, -753.000000,  60.000000,  -1.097880, 107.339000,  67.278768,   0.488914,   0.673792,   0.441517,   0.334589, 
29256,   0.370651,   9.489013,  -2.523945,  40.097480,  39.965360, -12.475637,   0.124125,  -0.941151,   0.460651, -96.000000, -748.500000,  66.000000,  -1.126307, 107.653344,  68.014248,   0.484797,   0.672352,   0.446630,   0.336658, 
29257,   0.427352,   9.502275,  -2.577088,  41.120260,  39.067864, -12.601190,   0.123766,  -0.945586,   0.460074, -96.000000, -750.000000,  66.000000,  -1.162873, 107.979448,  68.745552,   0.480592,   0.670974,   0.451729,   0.338678, 
29258,   0.372763,   9.431942,  -2.663247,  42.279980,  38.313244, -12.750738,   0.121056,  -0.942417,   0.465513, -97.500000, -748.500000,  67.500000,  -1.189768, 108.319808,  69.460024,   0.476376,   0.669640,   0.456803,   0.340468, 
29259,   0.414498,   9.248324,  -2.982865,  42.256412,  37.380364, -12.726958,   0.117115,  -0.950562,   0.483409, -99.000000, -750.000000,  73.500000,  -1.218299, 108.699720,  70.005904,   0.472412,   0.669103,   0.460998,   0.341369, 
29260,   0.290501,   8.971618,  -3.444372,  40.062328,  36.379644, -12.644167,   0.120201,  -0.946489,   0.488200, -97.500000, -748.500000,  75.000000,  -1.227577, 109.137600,  70.393520,   0.468665,   0.669367,   0.464530,   0.341248, 
29261,   0.418131,   8.882133,  -3.515022,  35.471656,  35.247128, -12.352238,   0.121293,  -0.930376,   0.499585, -97.500000, -742.500000,  78.000000,  -1.245804, 109.560312,  70.769176,   0.465001,   0.669612,   0.467908,   0.341164, 
29262,   0.416290,   8.853155,  -3.569810,  30.046834,  34.429388, -12.345300,   0.126951,  -0.924675,   0.522779, -94.500000, -739.500000,  85.500000,  -1.270066, 109.925792,  71.135720,   0.461670,   0.669654,   0.471035,   0.341288, 
29263,   0.377175,   8.931293,  -3.592934,  24.813576,  33.492596, -12.338368,   0.119520,  -0.909102,   0.530599, -99.000000, -733.500000,  87.000000,  -1.284556, 110.238344,  71.494008,   0.458716,   0.669474,   0.474001,   0.341522, 
29264,   0.337703,   9.071271,  -3.430968,  20.660078,  32.636920, -12.219465,   0.113553,  -0.910819,   0.535784, -102.000000, -733.500000,  88.500000,  -1.299821, 110.470272,  71.844480,   0.456253,   0.668993,   0.476679,   0.342048, 
29265,   0.284304,   9.164827,  -3.276089,  18.546470,  31.982642, -12.001020,   0.115204,  -0.924489,   0.538265, -100.500000, -738.000000,  90.000000,  -1.312993, 110.647176,  72.188064,   0.454135,   0.668295,   0.479155,   0.342749, 
29266,   0.433328,   9.345798,  -3.183970,  18.626438,  31.140690, -11.737572,   0.107073,  -0.914980,   0.554582, -105.000000, -733.500000,  94.500000,  -1.337790, 110.780792,  72.523784,   0.452245,   0.667489,   0.481413,   0.343660, 
29267,   0.297728,   9.441032,  -2.974161,  20.117294,  30.336154, -11.641644,   0.102915,  -0.891714,   0.572308, -108.000000, -724.500000,  99.000000,  -1.358730, 110.879416,  72.852376,   0.450599,   0.666561,   0.483543,   0.344664, 
29268,   0.405417,   9.482561,  -2.943888,  22.737436,  29.247802, -11.255956,   0.101652,  -0.908641,   0.565461, -108.000000, -730.500000,  97.500000,  -1.383003, 110.987120,  73.171712,   0.448913,   0.665713,   0.485633,   0.345606, 
29269,   0.414718,   9.509132,  -2.846817,  26.527732,  28.000520, -10.885342,   0.104533,  -0.910996,   0.555484, -106.500000, -732.000000,  94.500000,  -1.396234, 111.169272,  73.477488,   0.446871,   0.665158,   0.487900,   0.346100, 
29270,   0.420183,   9.539860,  -2.963804,  30.591932,  26.485196, -10.426542,   0.100375,  -0.887730,   0.573209, -109.500000, -723.000000,  99.000000,  -1.410539, 111.394344,  73.769240,   0.444615,   0.664821,   0.490210,   0.346352, 
29271,   0.649295,   9.652921,  -2.719593,  35.835352,  24.632902,  -9.612620,   0.094254,  -0.887456,   0.592585, -112.500000, -721.500000, 105.000000,  -1.412232, 111.718536,  74.041608,   0.441902,   0.664909,   0.492761,   0.346023, 
29272,   0.532775,   9.835117,  -2.461124,  41.927356,  23.199746,  -9.376607,   0.096280,  -0.893883,   0.605296, -111.000000, -723.000000, 109.500000,  -1.413638, 112.102656,  74.296624,   0.438901,   0.665296,   0.495399,   0.345358, 
29273,   0.576149,   9.754846,  -2.607216,  48.607544,  21.488444,  -8.759025,   0.097543,  -0.876955,   0.612144, -111.000000, -717.000000, 111.000000,  -1.414853, 112.550168,  74.534928,   0.435589,   0.665989,   0.498137,   0.344342, 
29274,   0.492801,   9.628726,  -2.608514,  56.152988,  19.552306,  -8.231639,   0.095362,  -0.868536,   0.613622, -112.500000, -714.000000, 111.000000,  -1.416486, 113.070488,  74.755064,   0.431884,   0.666987,   0.500958,   0.342908, 
29275,   0.548152,   9.493821,  -2.954029,  62.206140,  17.842988,  -7.507792,   0.101875,  -0.858762,   0.614129, -109.500000, -711.000000, 111.000000,  -1.418204, 113.659424,  74.956040,   0.427846,   0.668321,   0.503881,   0.341090, 
29276,   0.608045,   9.349100,  -3.116567,  67.296688,  16.019293,  -6.970638,   0.102096,  -0.849528,   0.638550, -109.500000, -706.500000, 118.500000,  -1.421018, 114.303752,  75.137872,   0.423529,   0.669915,   0.506840,   0.338938, 
29277,   0.519707,   9.324255,  -3.227603,  72.223208,  14.143649,  -6.227346,   0.087639,  -0.846173,   0.659475, -117.000000, -703.500000, 124.500000,  -1.424074, 114.998536,  75.300480,   0.418969,   0.671758,   0.509829,   0.336472, 
29278,   0.638340,   9.149232,  -3.428084,  77.130208,  12.073657,  -5.226633,   0.081859,  -0.844269,   0.669775, -120.000000, -702.000000, 127.500000,  -1.428518, 115.743584,  75.441288,   0.414162,   0.673850,   0.512817,   0.333684, 
29279,   0.473353,   9.153614,  -3.518426,  81.590416,   9.996260,  -4.135241,   0.090228,  -0.841737,   0.687531, -115.500000, -700.500000, 133.500000,  -1.434936, 116.535872,  75.558824,   0.409128,   0.676192,   0.515787,   0.330591, 
29280,   0.591844,   9.187007,  -3.303290,  86.623048,   7.651612,  -2.859530,   0.099639,  -0.831511,   0.687714, -111.000000, -697.500000, 133.500000,  -1.444382, 117.375568,  75.650912,   0.403853,   0.678775,   0.518702,   0.327180, 
29281,   1.076587,   9.785517,  -2.713826,  91.491024,   5.899589,  -2.323557,   0.100885,  -0.817391,   0.684909, -111.000000, -693.000000, 132.000000,  -1.453939, 118.266704,  75.718760,   0.398332,   0.681621,   0.521608,   0.323433, 
29282,   0.507652,   9.365469,  -3.437173,  98.022256,   3.821966,  -2.088351,   0.105046,  -0.800011,   0.691432, -109.500000, -687.000000, 133.500000,  -1.457212, 119.210880,  75.768584,   0.392546,   0.684658,   0.524538,   0.319313, 
29283,   0.470672,   9.078621,  -3.542103, 105.163600,   1.925017,  -1.033841,   0.102369,  -0.791229,   0.716176, -111.000000, -682.500000, 141.000000,  -1.457471, 120.226648,  75.799960,   0.386373,   0.687964,   0.527534,   0.314757, 
29284,   0.488752,   8.800870,  -3.893306, 112.349408,   0.160663,  -0.124434,   0.088099,  -0.784253,   0.742216, -118.500000, -678.000000, 148.500000,  -1.458009, 121.315736,  75.808896,   0.379792,   0.691568,   0.530556,   0.309763, 
29285,   0.536722,   8.597517,  -4.276104, 118.641944,  -1.545916,   1.246115,   0.089738,  -0.760083,   0.759294, -118.500000, -669.000000, 153.000000,  -1.458937, 122.472792,  75.796880,   0.372820,   0.695431,   0.533584,   0.304359, 
29286,   0.369857,   8.093939,  -4.811199, 123.535544,  -1.718812,   0.948835,   0.097684,  -0.732567,   0.762110, -115.500000, -660.000000, 153.000000,  -1.469222, 123.649288,  75.775696,   0.365667,   0.699347,   0.536518,   0.298859, 
29287,  -0.330225,   7.441890,  -5.693846, 127.239384,  -1.424253,   1.073198,   0.092076,  -0.729849,   0.767874, -118.500000, -658.500000, 154.500000,  -1.449049, 124.905560,  75.754792,   0.358126,   0.703359,   0.539696,   0.292770, 
29288,   0.198521,   7.287697,  -5.914273, 129.753096,  -1.560380,   1.681569,   0.095570,  -0.712922,   0.802199, -117.000000, -651.000000, 165.000000,  -1.448120, 126.229872,  75.729664,   0.350040,   0.707565,   0.542889,   0.286430, 
29289,  -0.043668,   7.275338,  -6.048874, 128.478024,  -1.112738,   1.666773,   0.102832,  -0.688664,   0.823166, -114.000000, -642.000000, 171.000000,  -1.429514, 127.577464,  75.704000,   0.341847,   0.711711,   0.546117,   0.279835, 
29290,   0.270958,   7.001905,  -6.507632, 126.613432,  -1.196453,   1.853614,   0.101181,  -0.674994,   0.820686, -115.500000, -637.500000, 169.500000,  -1.427940, 128.942472,  75.678232,   0.333414,   0.715852,   0.549255,   0.273225, 
29291,   0.028873,   6.826340,  -6.585098, 124.237400,  -0.933209,   1.814711,   0.100450,  -0.646026,   0.834127, -117.000000, -627.000000, 172.500000,  -1.415941, 130.296536,  75.653312,   0.325048,   0.719835,   0.552323,   0.266570, 
29292,   1.108896,   7.144369,  -5.819649, 119.102704,  -0.977756,   1.226474,   0.101355,  -0.633534,   0.840397, -117.000000, -622.500000, 174.000000,  -1.435574, 131.518032,  75.635712,   0.317299,   0.723383,   0.554964,   0.260740, 
29293,   0.416053,   4.291712, -10.543944, 105.602384,  -1.961276,   1.129899,   0.095746,  -0.630816,   0.846160, -120.000000, -621.000000, 175.500000,  -1.433703, 132.658264,  75.611936,   0.310149,   0.726617,   0.557386,   0.255130, 
29294,   0.444880,   4.336595,  -9.957074,  55.864344,  -1.283166,   0.010918,   0.107154,  -0.591985,   0.863998, -115.500000, -607.500000, 180.000000,  -1.425636, 133.470096,  75.598672,   0.305065,   0.728852,   0.559123,   0.251091, 
29295,  -0.180064,   6.619308,  -7.289682,  38.204184,  -0.905484,  -0.185624,   0.116256,  -0.577776,   0.892561, -111.000000, -601.500000, 189.000000,  -1.416761, 133.918384,  75.591360,   0.302269,   0.730053,   0.560076,   0.248825, 
29296,  -0.000633,   5.838338,  -8.129861,  37.341648,  -0.322357,   0.389628,   0.119325,  -0.576510,   0.887699, -109.500000, -601.500000, 187.500000,  -1.413502, 134.299248,  75.586736,   0.299866,   0.731066,   0.560876,   0.246928, 
29297,   0.355652,   6.172196,  -7.942257,  27.803332,  -0.114199,   0.270843,   0.120897,  -0.563566,   0.866167, -109.500000, -598.500000, 180.000000,  -1.414416, 134.632576,  75.580688,   0.297748,   0.731969,   0.561553,   0.245286, 
29298,   0.284205,   6.550977,  -7.465088,  15.766955,   0.097222,  -0.336659,   0.115630,  -0.559219,   0.862855, -112.500000, -597.000000, 178.500000,  -1.413463, 134.898384,  75.577152,   0.296064,   0.732680,   0.562106,   0.243970, 
29299,   0.029422,   6.523081,  -7.479400,  11.429494,   0.045928,  -0.141671,   0.114930,  -0.565284,   0.871353, -112.500000, -598.500000, 181.500000,  -1.388701, 135.134544,  75.574864,   0.294681,   0.733250,   0.562658,   0.242648, 
29300,   0.006899,   6.872525,  -6.621886,  11.790534,   0.060112,   0.284167,   0.118186,  -0.560397,   0.871606, -111.000000, -597.000000, 181.500000,  -1.363971, 135.265792,  75.571976,   0.293968,   0.733548,   0.562980,   0.241837, 
29301,   0.247598,   7.485428,  -6.213575,  16.484930,  -0.104935,   0.468328,   0.116893,  -0.542292,   0.869702, -112.500000, -591.000000, 180.000000,  -1.365948, 135.353904,  75.568176,   0.293401,   0.733795,   0.563134,   0.241406, 
29302,   0.238361,   7.966000,  -5.635284,  25.962450,  -0.184325,   0.613874,   0.112594,  -0.554873,   0.887022, -114.000000, -594.000000, 186.000000,  -1.368989, 135.561840,  75.560552,   0.292069,   0.734366,   0.563513,   0.240383, 
29303,   0.278369,   8.042346,  -5.466408,  41.119880,  -0.321503,   0.518295,   0.111723,  -0.561751,   0.900056, -114.000000, -595.500000, 190.500000,  -1.370985, 135.900688,  75.551360,   0.289906,   0.735276,   0.564157,   0.238705, 
29304,   0.345116,   7.935631,  -5.354902,  55.918900,  -0.569139,   0.697233,   0.113312,  -0.546002,   0.888177, -114.000000, -591.000000, 186.000000,  -1.370912, 136.385696,  75.542768,   0.286813,   0.736551,   0.565116,   0.236297, 
29305,   0.264157,   7.243596,  -6.174667,  67.161848,  -0.674900,   0.537815,   0.112969,  -0.547631,   0.897251, -114.000000, -591.000000, 189.000000,  -1.369769, 137.008528,  75.531064,   0.282831,   0.738142,   0.566310,   0.233182, 
29306,   0.259567,   6.767797,  -6.783222,  73.528680,  -0.618878,   0.441659,   0.113874,  -0.535138,   0.903521, -114.000000, -586.500000, 190.500000,  -1.373449, 137.633008,  75.520616,   0.278809,   0.739738,   0.567501,   0.230093, 
29307,   0.059590,   6.405024,  -6.980566,  77.603144,  -0.751683,   0.660178,   0.120933,  -0.517308,   0.909721, -111.000000, -580.500000, 192.000000,  -1.359587, 138.364592,  75.508392,   0.274172,   0.741530,   0.568908,   0.226344, 
29308,   0.228071,   6.372706,  -7.234350,  80.083080,  -0.789553,   0.944046,   0.125265,  -0.499115,   0.911707, -109.500000, -574.500000, 192.000000,  -1.357457, 139.140288,  75.494704,   0.269187,   0.743444,   0.570352,   0.222445, 
29309,   0.179411,   6.330738,  -7.333233,  81.363256,  -0.839576,   0.821881,   0.122880,  -0.497123,   0.898418, -111.000000, -574.500000, 187.500000,  -1.358930, 139.932960,  75.480936,   0.264053,   0.745348,   0.571775,   0.218469, 
29310,   0.245588,   6.030952,  -7.380287,  82.151976,  -0.770948,   0.874337,   0.117459,  -0.490783,   0.909297, -114.000000, -571.500000, 190.500000,  -1.359374, 140.742848,  75.466704,   0.258806,   0.747277,   0.573218,   0.214396, 
29311,   0.106903,   5.839945,  -7.640403,  83.397808,  -0.879023,   0.982840,   0.111291,  -0.458283,   0.923964, -118.500000, -559.500000, 193.500000,  -1.346191, 141.591568,  75.451232,   0.253356,   0.749221,   0.574713,   0.210023, 
29312,   0.316367,   5.788192,  -7.772320,  83.685224,  -0.844737,   1.052372,   0.121077,  -0.440815,   0.934376, -114.000000, -553.500000, 196.500000,  -1.344803, 142.454704,  75.436072,   0.247740,   0.751182,   0.576183,   0.205646, 
29313,   0.211767,   5.688568,  -7.816183,  82.608776,  -0.806920,   0.810074,   0.130333,  -0.428598,   0.948750, -109.500000, -549.000000, 201.000000,  -1.344710, 143.304592,  75.421264,   0.242191,   0.753080,   0.577600,   0.201337, 
29314,   0.223099,   5.534126,  -7.940532,  81.472520,  -0.809749,   0.711443,   0.137188,  -0.417195,   0.940182, -106.500000, -546.000000, 198.000000,  -1.339249, 144.151488,  75.406640,   0.236669,   0.754905,   0.578981,   0.196994, 
29315,   0.202830,   5.512660,  -7.898993,  81.740968,  -0.849232,   0.843276,   0.139665,  -0.391760,   0.924919, -106.500000, -538.500000, 192.000000,  -1.331640, 144.977280,  75.393000,   0.231287,   0.756657,   0.580318,   0.192741, 
29316,   0.229146,   5.303638,  -8.011987,  82.114032,  -0.755204,   0.843255,   0.132405,  -0.375372,   0.928201, -111.000000, -532.500000, 192.000000,  -1.327887, 145.805664,  75.379296,   0.225851,   0.758366,   0.581608,   0.188487, 
29317,   0.242923,   5.163151,  -8.160966,  82.378248,  -0.700486,   0.644069,   0.127342,  -0.364598,   0.939657, -114.000000, -528.000000, 195.000000,  -1.321893, 146.660736,  75.366536,   0.220237,   0.760086,   0.582926,   0.184078, 
29318,   0.284829,   4.899505,  -8.309816,  82.135368,  -0.897123,   0.933800,   0.133342,  -0.357267,   0.953776, -111.000000, -525.000000, 199.500000,  -1.321225, 147.527664,  75.352584,   0.214507,   0.761808,   0.584216,   0.179634, 
29319,   0.106302,   4.798216,  -8.322166,  81.328312,  -0.855963,   1.082293,   0.136428,  -0.353194,   0.958567, -109.500000, -523.500000, 201.000000,  -1.305025, 148.391520,  75.336704,   0.208863,   0.763452,   0.585471,   0.175086, 
29320,   0.153433,   4.559731,  -8.631027,  79.830872,  -0.796147,   1.088133,   0.132441,  -0.329113,   0.971755, -112.500000, -514.500000, 204.000000,  -1.290662, 149.268384,  75.319192,   0.203117,   0.765105,   0.586709,   0.170476, 
29321,   0.078520,   4.412868,  -8.864997,  77.123624,  -0.543952,   1.058922,   0.140184,  -0.308025,   0.959804, -109.500000, -508.500000, 199.500000,  -1.266169, 150.144704,  75.303080,   0.197409,   0.766683,   0.587929,   0.165793, 
29322,   0.306366,   4.477071,  -8.860764,  73.109952,  -0.425747,   0.912371,   0.141276,  -0.291912,   0.971190, -109.500000, -502.500000, 202.500000,  -1.263274, 150.970208,  75.288664,   0.191916,   0.768152,   0.589015,   0.161509, 
29323,   0.419683,   4.612879,  -8.803302,  68.725600,  -0.562050,   0.696294,   0.138006,  -0.258960,   0.985533, -112.500000, -490.500000, 205.500000,  -1.282124, 151.706848,  75.276528,   0.186895,   0.769463,   0.589932,   0.157827, 
29324,   0.506115,   4.640533,  -8.785721,  64.465468,  -0.858345,   0.561904,   0.138144,  -0.263758,   0.961690, -112.500000, -493.500000, 198.000000,  -1.310407, 152.370400,  75.265632,   0.182302,   0.770616,   0.590710,   0.154579, 
29325,   0.479792,   4.545829,  -8.786375,  60.965860,  -1.177996,   0.260452,   0.131819,  -0.269911,   0.966298, -115.500000, -495.000000, 199.500000,  -1.334871, 152.986896,  75.255376,   0.178041,   0.771672,   0.591427,   0.151548, 
29326,  -0.437731,   3.456925,  -9.113235,  58.258720,  -0.659862,  -0.534727,   0.141963,  -0.248008,   0.977288, -111.000000, -487.500000, 202.500000,  -1.326411, 153.613344,  75.248128,   0.173873,   0.772660,   0.592210,   0.148245, 
29327,   0.106253,   3.467287,  -9.197698,  56.099912,   0.622753,  -1.188442,   0.149861,  -0.228912,   0.951148, -108.000000, -483.000000, 193.500000,  -1.321563, 154.189024,  75.251616,   0.170009,   0.773498,   0.592977,   0.145240, 
29328,   0.679615,   4.379360,  -9.315557,  49.570980,   1.022884,  -2.428155,   0.138114,  -0.228726,   0.966634, -114.000000, -481.500000, 198.000000,  -1.368139, 154.738432,  75.269656,   0.166036,   0.774274,   0.593725,   0.142737, 
29329,   0.021342,   3.911548,  -9.264127,  43.870200,   1.041751,  -3.047610,   0.138506,  -0.218678,   0.986516, -114.000000, -477.000000, 204.000000,  -1.357715, 155.238928,  75.296464,   0.162672,   0.774830,   0.594531,   0.140108, 
29330,   0.262431,   3.653135,  -9.060669,  41.111324,   1.560664,  -3.712801,   0.147371,  -0.216508,   0.981007, -109.500000, -477.000000, 202.500000,  -1.347271, 155.731360,  75.328152,   0.159358,   0.775349,   0.595359,   0.137526, 
29331,   0.345911,   3.846783,  -9.146669,  37.176696,   2.098508,  -4.686509,   0.141949,  -0.210169,   0.991885, -112.500000, -474.000000, 205.500000,  -1.356812, 156.154080,  75.371920,   0.156397,   0.775723,   0.596152,   0.135454, 
29332,   0.340078,   3.843591,  -9.323765,  34.213392,   1.997564,  -4.886303,   0.143742,  -0.187992,   0.994773, -112.500000, -466.500000, 205.500000,  -1.364193, 156.535904,  75.421664,   0.153713,   0.775978,   0.596919,   0.133582, 
29333,   0.250052,   3.601973,  -9.168206,  31.235872,   2.162529,  -5.281698,   0.150410,  -0.180210,   0.981090, -109.500000, -465.000000, 201.000000,  -1.364176, 156.901680,  75.473280,   0.151176,   0.776195,   0.597691,   0.131744, 
29334,   0.202338,   3.558631,  -9.271871,  27.916332,   2.452102,  -5.817893,   0.140064,  -0.167895,   0.979581, -115.500000, -460.500000, 199.500000,  -1.354227, 157.244560,  75.530552,   0.148841,   0.776341,   0.598490,   0.129963, 
29335,   0.330130,   3.682508,  -9.431949,  23.899660,   2.628960,  -6.093979,   0.134080,  -0.172419,   0.975114, -118.500000, -462.000000, 198.000000,  -1.359328, 157.538288,  75.592600,   0.146756,   0.776409,   0.599241,   0.128544, 
29336,   0.187682,   3.543244,  -9.227727,  20.782116,   2.573199,  -6.225046,   0.139159,  -0.180387,   0.973310, -115.500000, -465.000000, 198.000000,  -1.356457, 157.791296,  75.656648,   0.144984,   0.776387,   0.599956,   0.127281, 
29337,   0.141647,   3.478362,  -9.192705,  18.438180,   2.614138,  -6.232734,   0.153636,  -0.140290,   0.986287, -109.500000, -451.500000, 201.000000,  -1.340418, 158.018288,  75.721464,   0.143459,   0.776315,   0.600666,   0.126065, 
29338,   0.227529,   3.526697,  -9.314197,  16.703981,   2.653530,  -6.268545,   0.156688,  -0.141831,   0.971773, -108.000000, -453.000000, 196.500000,  -1.335460, 158.223856,  75.786728,   0.142021,   0.776225,   0.601341,   0.125035, 
29339,   0.242808,   3.587829,  -9.172992,  15.088544,   2.568812,  -6.166005,   0.146593,  -0.155314,   0.989740, -112.500000, -456.000000, 202.500000,  -1.338002, 158.393184,  75.851640,   0.140790,   0.776099,   0.601964,   0.124244, 
29340,   0.096145,   3.473593,  -9.071474,  14.280403,   2.509415,  -5.967092,   0.142419,  -0.134854,   0.997813, -115.500000, -448.500000, 204.000000,  -1.322407, 158.548320,  75.915280,   0.139754,   0.775944,   0.602587,   0.123402, 
29341,   0.221146,   3.616772,  -9.118838,  13.953415,   2.466419,  -5.823508,   0.149461,  -0.119830,   0.994360, -112.500000, -444.000000, 202.500000,  -1.319437, 158.690288,  75.976696,   0.138743,   0.775794,   0.603161,   0.122709, 
29342,   0.247715,   3.705786,  -9.059563,  13.952143,   2.332843,  -5.852005,   0.151455,  -0.131871,   0.987766, -111.000000, -448.500000, 201.000000,  -1.325333, 158.801424,  76.038312,   0.137894,   0.775610,   0.603690,   0.122239, 
29343,   0.142585,   3.557005,  -8.903464,  14.797161,   2.576859,  -6.464972,   0.148557,  -0.132322,   0.988090, -112.500000, -448.500000, 201.000000,  -1.318626, 158.925008,  76.102824,   0.137025,   0.775413,   0.604268,   0.121620, 
29344,   0.140862,   3.584421,  -9.025032,  16.018795,   2.713759,  -6.979961,   0.142060,  -0.139290,   0.997236, -115.500000, -450.000000, 204.000000,  -1.304512, 159.061152,  76.173872,   0.136102,   0.775180,   0.604905,   0.120890, 
29345,   0.210721,   3.653271,  -9.021514,  16.846376,   2.949448,  -7.488835,   0.139521,  -0.135306,   0.998137, -117.000000, -448.500000, 204.000000,  -1.306239, 159.196192,  76.250184,   0.135098,   0.774933,   0.605557,   0.120278, 
29346,   0.133941,   3.450798,  -8.970880,  17.759346,   3.122273,  -8.076209,   0.147435,  -0.113403,   0.981649, -114.000000, -442.500000, 198.000000,  -1.298362, 159.352848,  76.332248,   0.133994,   0.774671,   0.606282,   0.119492, 
29347,   0.205354,   3.445497,  -9.136187,  18.562212,   3.418964,  -8.845358,   0.144895,  -0.109419,   0.982551, -115.500000, -441.000000, 198.000000,  -1.290657, 159.530224,  76.421184,   0.132744,   0.774396,   0.607074,   0.118604, 
29348,   0.279415,   3.477186,  -9.178105,  18.565492,   3.628843,  -9.555235,   0.138244,  -0.114394,   1.005886, -118.500000, -441.000000, 205.500000,  -1.297110, 159.702400,  76.517960,   0.131446,   0.774086,   0.607897,   0.117846, 
29349,   0.141409,   3.240718,  -9.145065,  18.441608,   3.943949, -10.621463,   0.147639,  -0.106975,   0.996416, -114.000000, -439.500000, 202.500000,  -1.292321, 159.892816,  76.623768,   0.130077,   0.773739,   0.608814,   0.116924, 
29350,   0.115751,   3.210208,  -9.206656,  18.344396,   4.393680, -11.441324,   0.151066,  -0.101274,   0.992132, -112.500000, -438.000000, 201.000000,  -1.277258, 160.095696,  76.739520,   0.128671,   0.773344,   0.609824,   0.115875, 
29351,   0.272428,   3.306641,  -9.289225,  18.089950,   4.567843, -12.293920,   0.145987,  -0.093306,   0.993936, -115.500000, -435.000000, 201.000000,  -1.281163, 160.279408,  76.864168,   0.127286,   0.772896,   0.610851,   0.115063, 
29352,   0.146208,   3.194120,  -9.201127,  17.989962,   4.723644, -13.188658,   0.143106,  -0.090951,   1.003912, -117.000000, -433.500000, 204.000000,  -1.273676, 160.466560,  76.997448,   0.125931,   0.772383,   0.611944,   0.114161, 
29353,   0.200936,   3.077715,  -9.184602,  18.072902,   5.276615, -14.422441,   0.137856,  -0.083797,   1.010252, -120.000000, -430.500000, 205.500000,  -1.269207, 160.661248,  77.141936,   0.124499,   0.771818,   0.613115,   0.113248, 
29354,   0.366601,   3.209339,  -9.286228,  18.037530,   5.636109, -15.660963,   0.135642,  -0.080991,   0.992427, -121.500000, -430.500000, 199.500000,  -1.267256, 160.834560,  77.301240,   0.123187,   0.771153,   0.614363,   0.112479, 
29355,   0.057704,   3.113665,  -9.279021,  17.934338,   6.178669, -17.471376,   0.140550,  -0.089774,   0.995161, -118.500000, -433.500000, 201.000000,  -1.264523, 161.018688,  77.475032,   0.121792,   0.770411,   0.615711,   0.111658, 
29356,   0.235824,   3.102245,  -9.245964,  17.546424,   6.680175, -18.737368,   0.142764,  -0.092580,   1.012987, -117.000000, -433.500000, 207.000000,  -1.268956, 161.211584,  77.664224,   0.120288,   0.769597,   0.617162,   0.110849, 
29357,   0.157816,   2.996889,  -9.408454,  16.289543,   6.912688, -20.037054,   0.143497,  -0.080903,   1.023794, -117.000000, -429.000000, 210.000000,  -1.267514, 161.404240,  77.867816,   0.118806,   0.768698,   0.618715,   0.110013, 
29358,   0.205491,   3.025223,  -9.389652,  15.271628,   7.270634, -20.858052,   0.136237,  -0.064515,   1.027076, -121.500000, -423.000000, 210.000000,  -1.265009, 161.573648,  78.082264,   0.117480,   0.767715,   0.620321,   0.109302, 
29359,   0.140554,   2.892865,  -9.360391,  14.542405,   7.477290, -21.755914,   0.142717,  -0.060354,   1.008278, -118.500000, -423.000000, 204.000000,  -1.257788, 161.748864,  78.304912,   0.116135,   0.766687,   0.621991,   0.108532, 
29360,   0.139183,   2.988770,  -9.344728,  13.973145,   7.665260, -22.562418,   0.142359,  -0.064790,   1.007701, -118.500000, -424.500000, 204.000000,  -1.249821, 161.902240,  78.536136,   0.114935,   0.765578,   0.623690,   0.107878, 
29361,   0.128428,   2.944332,  -9.328446,  13.525155,   7.804663, -23.146040,   0.140520,  -0.054741,   1.000105, -120.000000, -421.500000, 201.000000,  -1.240079, 162.048144,  78.775592,   0.113790,   0.764413,   0.625439,   0.107257, 
29362,   0.104789,   2.827583,  -9.344506,  13.669077,   7.971165, -23.770040,   0.136875,  -0.029031,   1.004218, -123.000000, -412.500000, 201.000000,  -1.226153, 162.195680,  79.021464,   0.112652,   0.763193,   0.627222,   0.106600, 
29363,   0.076812,   2.803349,  -9.386106,  13.744478,   8.169864, -24.312998,   0.127855,  -0.029208,   1.023917, -127.500000, -411.000000, 207.000000,  -1.212454, 162.354400,  79.272776,   0.111437,   0.761954,   0.629051,   0.105883, 
29364,   0.095529,   2.815124,  -9.297370,  13.811870,   8.320860, -24.911046,   0.136362,  -0.031474,   1.017830, -123.000000, -412.500000, 205.500000,  -1.202977, 162.509584,  79.529648,   0.110222,   0.760683,   0.630910,   0.105216, 
29365,   0.183065,   2.727323,  -9.410022,  14.030846,   8.352600, -25.567558,   0.137063,  -0.025410,   1.009333, -123.000000, -411.000000, 202.500000,  -1.195741, 162.669104,  79.793240,   0.108963,   0.759381,   0.632816,   0.104541, 
29366,   0.083492,   2.740267,  -9.374231,  14.263592,   8.560493, -26.564072,   0.133276,  -0.035547,   1.013039, -124.500000, -414.000000, 204.000000,  -1.183722, 162.827232,  80.064936,   0.107737,   0.758029,   0.634780,   0.103846, 
29367,   0.175797,   2.854795,  -9.302974,  14.519782,   8.839986, -27.464292,   0.133293,  -0.032740,   1.022692, -124.500000, -412.500000, 207.000000,  -1.188562, 162.978080,  80.345808,   0.106459,   0.756616,   0.636768,   0.103303, 
29368,   0.216256,   2.823004,  -9.349579,  14.950634,   9.100570, -28.505070,   0.135086,  -0.010563,   1.025579, -124.500000, -405.000000, 207.000000,  -1.190300, 163.115376,  80.638144,   0.105281,   0.755116,   0.638817,   0.102820, 
29369,   0.164492,   2.796613,  -9.344541,  15.101302,   9.381142, -29.629812,   0.133263,   0.002291,   1.027636, -126.000000, -400.500000, 207.000000,  -1.192077, 163.263264,  80.940784,   0.104026,   0.753557,   0.640935,   0.102282, 
29370,   0.260542,   2.799803,  -9.362839,  14.890274,   9.579165, -30.629454,   0.127996,   0.006638,   1.024324, -129.000000, -399.000000, 205.500000,  -1.203196, 163.412016,  81.254664,   0.102707,   0.751941,   0.643118,   0.101805, 
29371,   0.166640,   2.733717,  -9.422731,  14.605005,   9.807355, -31.561694,   0.131766,   0.013968,   1.010965, -127.500000, -397.500000, 201.000000,  -1.205635, 163.557008,  81.578888,   0.101456,   0.750256,   0.645375,   0.101295, 
29372,   0.201484,   2.689051,  -9.418829,  14.123797,   9.964627, -32.145360,   0.127980,   0.003832,   1.014671, -129.000000, -400.500000, 202.500000,  -1.212665, 163.702016,  81.909616,   0.100175,   0.748511,   0.647649,   0.100812, 
29373,   0.182751,   2.795029,  -9.380078,  13.561257,   9.836256, -32.570614,   0.119865,   0.016147,   1.040641, -133.500000, -394.500000, 210.000000,  -1.218646, 163.830384,  82.246104,   0.099007,   0.746718,   0.649948,   0.100416, 
29374,   0.111536,   2.743638,  -9.342153,  13.712755,   9.962054, -32.837468,   0.130677,   0.038501,   1.023829, -129.000000, -388.500000, 204.000000,  -1.211557, 163.954000,  82.586560,   0.097946,   0.744888,   0.652281,   0.099961, 
29375,   0.063920,   2.699353,  -9.362669,  13.967516,   9.935985, -32.989846,   0.127933,   0.036058,   1.009963, -130.500000, -390.000000, 199.500000,  -1.203200, 164.081824,  82.928344,   0.096868,   0.743052,   0.654629,   0.099470, 
29376,   0.115903,   2.564779,  -9.455553,  14.133452,   9.906314, -33.112320,   0.125068,   0.041219,   1.029592, -132.000000, -387.000000, 205.500000,  -1.187414, 164.224688,  83.272240,   0.095735,   0.741187,   0.656990,   0.098838, 
29377,   0.057016,   2.634923,  -9.443550,  13.930258,   9.933274, -33.539554,   0.125614,   0.049275,   1.035285, -132.000000, -384.000000, 207.000000,  -1.171965, 164.355472,  83.617984,   0.094682,   0.739297,   0.659349,   0.098275, 
29378,   0.042027,   2.613359,  -9.361053,  13.833341,   9.841483, -33.752092,   0.117637,   0.056792,   1.037411, -136.500000, -381.000000, 207.000000,  -1.162363, 164.488368,  83.965872,   0.093584,   0.737400,   0.661719,   0.097733, 
29379,   0.145204,   2.566991,  -9.438218,  13.559965,   9.920262, -34.127928,   0.123604,   0.058510,   1.032226, -133.500000, -381.000000, 205.500000,  -1.159047, 164.628304,  84.316792,   0.092406,   0.735489,   0.664103,   0.097188, 
29380,   0.187836,   2.481102,  -9.421434,  13.397980,   9.953688, -34.625188,   0.120348,   0.053623,   1.031973, -135.000000, -382.500000, 205.500000,  -1.157401, 164.768176,  84.673280,   0.091217,   0.733519,   0.666498,   0.096650, 
29381,   0.230750,   2.518820,  -9.460039,  13.416058,   9.950858, -35.173324,   0.109131,   0.059059,   1.043499, -141.000000, -379.500000, 208.500000,  -1.161151, 164.901072,  85.034656,   0.090040,   0.731513,   0.668909,   0.096185, 
29382,   0.275617,   2.439084,  -9.262053,  13.459094,   9.950452, -35.233784,   0.113105,   0.072817,   1.044907, -139.500000, -375.000000, 208.500000,  -1.163414, 165.035584,  85.400344,   0.088864,   0.729482,   0.671352,   0.095698, 
29383,   0.385716,   2.462660,  -9.468955,  13.794210,   9.912343, -35.578880,   0.107838,   0.077164,   1.041595, -142.500000, -373.500000, 207.000000,  -1.169854, 165.163216,  85.769360,   0.087708,   0.727429,   0.673807,   0.095275, 
29384,   0.263134,   2.679925,  -9.411884,  13.373914,   9.948520, -35.652496,   0.109239,   0.089293,   1.024600, -142.500000, -370.500000, 201.000000,  -1.177433, 165.266528,  86.138280,   0.086701,   0.725330,   0.676216,   0.094994, 
29385,   0.187157,   2.596305,  -9.404245,  13.342783,   9.534308, -34.903040,   0.110689,   0.109841,   1.036562, -142.500000, -363.000000, 204.000000,  -1.184378, 165.372688,  86.503032,   0.085686,   0.723256,   0.678601,   0.094684, 
29386,   0.125215,   2.529245,  -9.434262,  13.417392,   9.349882, -34.400724,   0.104177,   0.100067,   1.036056, -145.500000, -366.000000, 204.000000,  -1.173826, 165.485264,  86.860920,   0.084745,   0.721214,   0.680963,   0.094217, 
29387,   0.176026,   2.569670,  -9.357134,  13.473914,   9.113315, -33.664552,   0.106732,   0.098890,   1.044806, -144.000000, -366.000000, 207.000000,  -1.173501, 165.592112,  87.212472,   0.083788,   0.719210,   0.683270,   0.093838, 
29388,   0.111300,   2.529835,  -9.403677,  13.641987,   8.821745, -33.197918,   0.099301,   0.114463,   1.052626, -148.500000, -360.000000, 208.500000,  -1.166757, 165.696480,  87.557440,   0.082892,   0.717214,   0.685516,   0.093423, 
29389,   0.103112,   2.481350,  -9.370131,  14.103977,   8.743471, -32.637238,   0.097104,   0.120076,   1.044453, -150.000000, -358.500000, 205.500000,  -1.161982, 165.812096,  87.896160,   0.081923,   0.715264,   0.687731,   0.092944, 
29390,   0.113055,   2.495022,  -9.434966,  14.626208,   8.591326, -32.581966,   0.103429,   0.126229,   1.039845, -147.000000, -357.000000, 204.000000,  -1.155771, 165.930400,  88.231696,   0.080952,   0.713334,   0.689931,   0.092433, 
29391,   0.144459,   2.495332,  -9.352699,  15.140146,   8.456635, -32.596104,   0.101232,   0.131842,   1.031671, -148.500000, -355.500000, 201.000000,  -1.156335, 166.050704,  88.566856,   0.079932,   0.711403,   0.692116,   0.091948, 
29392,   0.258181,   2.440564,  -9.384347,  16.005831,   8.312968, -32.467274,   0.092400,   0.135286,   1.056486, -153.000000, -352.500000, 208.500000,  -1.163781, 166.184368,  88.901888,   0.078788,   0.709462,   0.694282,   0.091416, 
29393,   0.324424,   2.512957,  -9.372001,  16.863826,   8.203221, -32.668648,   0.096544,   0.149858,   1.053356, -151.500000, -348.000000, 207.000000,  -1.173317, 166.309952,  89.238104,   0.077686,   0.707508,   0.696447,   0.090941, 
29394,   0.263219,   2.450671,  -9.427975,  17.584912,   8.156455, -32.792080,   0.096544,   0.149858,   1.053356, -151.500000, -348.000000, 207.000000,  -1.180005, 166.446912,  89.574576,   0.076534,   0.705556,   0.698625,   0.090375, 
29395,   0.183845,   2.523659,  -9.417893,  17.730204,   8.084912, -32.800454,   0.096561,   0.152665,   1.063009, -151.500000, -346.500000, 210.000000,  -1.184516, 166.586272,  89.910456,   0.075387,   0.703608,   0.700803,   0.089775, 
29396,   0.268143,   2.328396,  -9.465202,  17.452122,   7.774873, -32.669776,   0.098304,   0.166423,   1.036939, -151.500000, -343.500000, 201.000000,  -1.196978, 166.739296,  90.245856,   0.074109,   0.701658,   0.702966,   0.089133, 
29397,   0.278945,   2.382270,  -9.541805,  17.271606,   7.757526, -32.663372,   0.092712,   0.171947,   1.052355, -154.500000, -340.500000, 205.500000,  -1.192929, 166.876176,  90.581976,   0.073037,   0.699674,   0.705126,   0.088482, 
29398,   0.237650,   2.356852,  -9.447705,  16.875742,   7.687731, -32.573238,   0.082212,   0.186254,   1.065036, -160.500000, -334.500000, 208.500000,  -1.198776, 167.013168,  90.916296,   0.071908,   0.697707,   0.707268,   0.087885, 
29399,   0.221553,   2.211058,  -9.502219,  16.763340,   7.635358, -32.427456,   0.077646,   0.196666,   1.053226, -163.500000, -331.500000, 204.000000,  -1.190898, 167.165632,  91.249680,   0.070777,   0.695746,   0.709428,   0.087104, 
29400,   0.223164,   2.381886,  -9.531599,  16.274048,   7.608440, -32.694412,   0.089767,   0.203722,   1.047970, -157.500000, -330.000000, 202.500000,  -1.192110, 167.295024,  91.583816,   0.069732,   0.693758,   0.711555,   0.086514, 
29401,   0.201907,   2.306714,  -9.419088,  16.126575,   7.439209, -32.803486,   0.095376,   0.201004,   1.042207, -154.500000, -331.500000, 201.000000,  -1.190532, 167.423136,  91.919400,   0.068714,   0.691740,   0.713673,   0.085910, 
29402,   0.237465,   2.092951,  -9.580082,  16.102615,   7.543718, -33.254448,   0.086869,   0.203270,   1.048294, -159.000000, -330.000000, 202.500000,  -1.190324, 167.567712,  92.257344,   0.067591,   0.689713,   0.715814,   0.085207, 
29403,   0.338997,   2.102671,  -9.625942,  15.176723,   7.632813, -33.645988,   0.082507,   0.220109,   1.051252, -162.000000, -324.000000, 202.500000,  -1.201928, 167.719936,  92.598040,   0.066351,   0.687681,   0.717969,   0.084524, 
29404,   0.281726,   2.175540,  -9.599762,  14.086356,   7.533861, -34.355996,   0.075994,   0.210335,   1.050745, -165.000000, -327.000000, 202.500000,  -1.214591, 167.848912,  92.944992,   0.065244,   0.685587,   0.720134,   0.083990, 
29405,   0.279334,   2.094517,  -9.559704,  13.322895,   7.578995, -34.572472,   0.069139,   0.198932,   1.059313, -168.000000, -330.000000, 205.500000,  -1.230626, 167.972496,  93.295448,   0.064147,   0.683453,   0.722299,   0.083504, 
29406,   0.300390,   2.075859,  -9.600019,  12.475081,   7.611370, -35.198180,   0.072600,   0.210247,   1.074334, -166.500000, -325.500000, 210.000000,  -1.239705, 168.089024,  93.651704,   0.063137,   0.681273,   0.724498,   0.083020, 
29407,   0.337445,   2.044743,  -9.613601,  11.669116,   7.736869, -35.762780,   0.080343,   0.231335,   1.062384, -163.500000, -319.500000, 205.500000,  -1.250842, 168.196912,  94.013704,   0.062165,   0.679053,   0.726724,   0.082602, 
29408,   0.357499,   2.096115,  -9.601153,  11.005350,   7.758942, -36.387612,   0.072708,   0.240481,   1.055435, -168.000000, -316.500000, 202.500000,  -1.261363, 168.283056,  94.381680,   0.061324,   0.676771,   0.728958,   0.082315, 
29409,   0.221945,   2.074761,  -9.615622,  10.582611,   7.891833, -37.268904,   0.060774,   0.237046,   1.065807, -174.000000, -316.500000, 205.500000,  -1.269089, 168.369616,  94.756192,   0.060495,   0.674430,   0.731218,   0.082008, 
29410,   0.311763,   1.947029,  -9.551235,   9.934878,   8.053193, -38.096088,   0.061132,   0.241481,   1.066384, -174.000000, -315.000000, 205.500000,  -1.276274, 168.460304,  95.139792,   0.059643,   0.672033,   0.733534,   0.081671, 
29411,   0.143130,   2.014807,  -9.616249,   9.540981,   8.224049, -38.884520,   0.065823,   0.264110,   1.068948, -172.500000, -307.500000, 205.500000,  -1.271968, 168.545648,  95.531552,   0.058893,   0.669573,   0.735902,   0.081303, 
29412,   0.336298,   1.949564,  -9.555247,   9.314072,   8.340375, -39.436140,   0.054606,   0.269546,   1.080474, -178.500000, -304.500000, 208.500000,  -1.278127, 168.628544,  95.930832,   0.058087,   0.667047,   0.738282,   0.081009, 
29413,   0.158307,   2.122732,  -9.533439,   9.339134,   8.422262, -40.232184,   0.045008,   0.255700,   1.075176, -183.000000, -309.000000, 207.000000,  -1.275632, 168.687696,  96.337328,   0.057472,   0.664450,   0.740684,   0.080818, 
29414,   0.335254,   2.101275,  -9.502693,   9.690400,   8.364987, -40.646100,   0.055632,   0.274433,   1.053249, -178.500000, -304.500000, 199.500000,  -1.285433, 168.745312,  96.748872,   0.056786,   0.661827,   0.743108,   0.080707, 
29415,   0.321599,   2.092455,  -9.496834,   9.932611,   8.298769, -41.507172,   0.053605,   0.280861,   1.040537, -180.000000, -303.000000, 195.000000,  -1.289627, 168.798256,  97.167712,   0.056159,   0.659137,   0.745559,   0.080594, 
29416,   0.250958,   2.041287,  -9.544279,  10.378294,   8.205753, -42.103448,   0.047809,   0.279958,   1.041186, -183.000000, -303.000000, 195.000000,  -1.297192, 168.864544,  97.592744,   0.055429,   0.656394,   0.748030,   0.080411, 
29417,   0.251519,   1.900278,  -9.595453,  10.278117,   8.291752, -42.730608,   0.045132,   0.288740,   1.065929, -184.500000, -298.500000, 202.500000,  -1.293448, 168.946432,  98.024184,   0.054684,   0.653609,   0.750555,   0.080062, 
29418,   0.124496,   1.833406,  -9.619855,   9.878076,   8.391474, -43.126808,   0.044431,   0.282676,   1.074427, -184.500000, -300.000000, 205.500000,  -1.287004, 169.043968,  98.459128,   0.053869,   0.650805,   0.753110,   0.079592, 
29419,   0.218315,   1.833090,  -9.619353,   9.370444,   8.450917, -43.329572,   0.042796,   0.299152,   1.081599, -186.000000, -294.000000, 207.000000,  -1.279913, 169.132960,  98.898512,   0.053106,   0.647939,   0.755653,   0.079170, 
29420,   0.161857,   1.865257,  -9.598572,   8.971705,   8.501586, -43.653148,   0.040599,   0.304765,   1.073425, -187.500000, -292.500000, 204.000000,  -1.272746, 169.211040,  99.340336,   0.052408,   0.645050,   0.758201,   0.078817, 
29421,   0.142698,   1.929717,  -9.618080,   8.444921,   8.575554, -43.729192,   0.031530,   0.296168,   1.064167, -192.000000, -295.500000, 201.000000,  -1.262142, 169.276576,  99.784136,   0.051806,   0.642141,   0.760755,   0.078526, 
29422,   0.247377,   1.919542,  -9.599997,   8.261831,   8.495076, -43.699760,   0.026638,   0.307757,   1.071085, -195.000000, -291.000000, 202.500000,  -1.265284, 169.334416, 100.228152,   0.051157,   0.639208,   0.763266,   0.078357, 
29423,   0.282775,   1.937928,  -9.572179,   8.177538,   8.451470, -43.760444,   0.030987,   0.328757,   1.082724, -193.500000, -283.500000, 205.500000,  -1.268969, 169.383936, 100.673096,   0.050553,   0.636261,   0.765771,   0.078244, 
29424,   0.298022,   1.927739,  -9.599089,   8.023322,   8.265138, -43.930816,   0.029523,   0.346048,   1.085358, -195.000000, -277.500000, 205.500000,  -1.275274, 169.435024, 101.118656,   0.049924,   0.633313,   0.768280,   0.078134, 
29425,   0.324554,   1.866929,  -9.616768,   7.659770,   8.157989, -43.980240,   0.025516,   0.326676,   1.064644, -196.500000, -285.000000, 199.500000,  -1.283550, 169.493744, 101.564544,   0.049241,   0.630344,   0.770768,   0.077977, 
29426,   0.278630,   1.840722,  -9.652800,   7.479402,   8.085067, -43.823968,   0.022431,   0.322604,   1.059853, -198.000000, -286.500000, 198.000000,  -1.288951, 169.551744, 102.010200,   0.048583,   0.627366,   0.773246,   0.077806, 
29427,   0.248813,   1.739522,  -9.577878,   7.141350,   7.930677, -43.433004,   0.020608,   0.335459,   1.061909, -199.500000, -282.000000, 198.000000,  -1.291322, 169.614624, 102.452232,   0.047924,   0.624413,   0.775710,   0.077581, 
29428,   0.179890,   1.857289,  -9.590050,   7.062241,   7.750999, -42.844300,   0.026404,   0.336362,   1.061261, -196.500000, -282.000000, 198.000000,  -1.282363, 169.661760, 102.889552,   0.047433,   0.621462,   0.778124,   0.077395, 
29429,   0.256294,   1.848108,  -9.515781,   7.323921,   7.537318, -41.984584,   0.011947,   0.339718,   1.082186, -204.000000, -279.000000, 204.000000,  -1.281655, 169.705952, 103.319880,   0.046908,   0.618549,   0.780476,   0.077267, 
29430,   0.131603,   1.916266,  -9.563615,   7.353239,   7.322805, -41.394340,   0.007210,   0.349315,   1.074914, -207.000000, -276.000000, 201.000000,  -1.269739, 169.745552, 103.742608,   0.046491,   0.615678,   0.782791,   0.077105, 
29431,   0.242311,   1.771427,  -9.560790,   7.299037,   7.038643, -40.348864,   0.007177,   0.343702,   1.055610, -207.000000, -279.000000, 195.000000,  -1.270439, 169.801728, 104.156144,   0.045908,   0.612878,   0.785053,   0.076892, 
29432,   0.122293,   1.744386,  -9.693311,   7.201201,   6.838450, -39.526720,  -0.009835,   0.348235,   1.067784, -216.000000, -276.000000, 198.000000,  -1.249893, 169.857152, 104.560232,   0.045482,   0.610110,   0.787248,   0.076563, 
29433,   0.161119,   1.653705,  -9.634066,   6.622331,   6.639824, -38.614112,  -0.012700,   0.353396,   1.087413, -217.500000, -273.000000, 204.000000,  -1.238710, 169.927120, 104.954488,   0.044925,   0.607420,   0.789397,   0.076178, 
29434,   0.073405,   1.587339,  -9.663093,   6.157102,   6.590588, -38.010904,  -0.005845,   0.364799,   1.078845, -214.500000, -270.000000, 201.000000,  -1.221589, 169.995568, 105.341208,   0.044425,   0.604778,   0.791507,   0.075767, 
29435,   0.159275,   1.611829,  -9.673059,   5.434089,   6.551625, -37.253704,  -0.014196,   0.365074,   1.070741, -219.000000, -270.000000, 198.000000,  -1.210939, 170.062256, 105.721152,   0.043897,   0.602168,   0.793556,   0.075396, 
29436,   0.217336,   1.633970,  -9.630710,   5.132987,   6.572351, -36.812804,  -0.016549,   0.372679,   1.076758, -220.500000, -267.000000, 199.500000,  -1.205824, 170.116048, 106.095448,   0.043405,   0.599588,   0.795552,   0.075139, 
29437,   0.172778,   1.754012,  -9.577845,   5.217395,   6.503336, -36.351844,  -0.015489,   0.383179,   1.068838, -220.500000, -264.000000, 196.500000,  -1.201563, 170.151248, 106.465856,   0.043008,   0.597027,   0.797515,   0.075012, 
29438,   0.307627,   1.832482,  -9.487081,   5.515005,   6.300882, -35.795172,  -0.009352,   0.385711,   1.059115, -217.500000, -264.000000, 193.500000,  -1.209275, 170.176352, 106.831712,   0.042585,   0.594499,   0.799440,   0.075015, 
29439,   0.209128,   1.884342,  -9.513747,   6.472487,   5.963544, -35.224924,  -0.020927,   0.386711,   1.070064, -223.500000, -262.500000, 196.500000,  -1.207925, 170.196784, 107.191592,   0.042252,   0.591985,   0.801308,   0.074997, 
29440,   0.243674,   1.805690,  -9.557806,   7.155857,   5.698082, -34.639016,  -0.030851,   0.374042,   1.083493, -228.000000, -265.500000, 201.000000,  -1.204663, 170.229520, 107.544384,   0.041876,   0.589521,   0.803144,   0.074880, 
29441,   0.135525,   1.764146,  -9.543886,   7.574626,   5.538289, -34.384856,  -0.023996,   0.385445,   1.074925, -225.000000, -262.500000, 198.000000,  -1.196020, 170.275072, 107.892944,   0.041475,   0.587088,   0.804968,   0.074643, 
29442,   0.197906,   1.618022,  -9.591914,   7.984810,   5.369354, -34.183176,  -0.025681,   0.393502,   1.053139, -226.500000, -261.000000, 190.500000,  -1.190299, 170.345776, 108.238120,   0.040930,   0.584688,   0.806790,   0.074242, 
29443,   0.032915,   1.549622,  -9.630371,   8.226391,   5.521113, -33.968940,  -0.034717,   0.390518,   1.063186, -231.000000, -261.000000, 193.500000,  -1.172010, 170.431664, 108.581216,   0.040400,   0.582282,   0.808590,   0.073664, 
29444,   0.129355,   1.617276,  -9.676819,   7.644721,   5.735491, -34.058572,  -0.036490,   0.411793,   1.094200, -232.500000, -252.000000, 202.500000,  -1.160315, 170.513152, 108.924296,   0.039849,   0.579876,   0.810380,   0.073149, 
29445,   0.206009,   1.636400,  -9.641416,   7.387111,   5.745231, -34.009016,  -0.029806,   0.422381,   1.090169, -229.500000, -249.000000, 201.000000,  -1.160179, 170.579952, 109.267968,   0.039294,   0.577466,   0.812160,   0.072794, 
29446,   0.201316,   1.627618,  -9.675095,   7.069493,   5.745634, -34.073428,  -0.027299,   0.412784,   1.069963, -228.000000, -253.500000, 195.000000,  -1.158659, 170.641120, 109.612112,   0.038779,   0.575051,   0.813938,   0.072470, 
29447,   0.231037,   1.581991,  -9.673135,   6.796106,   5.769441, -34.763556,  -0.038378,   0.413422,   1.057647, -234.000000, -253.500000, 190.500000,  -1.160230, 170.700752, 109.959032,   0.038251,   0.572600,   0.815705,   0.072170, 
29448,   0.128542,   1.585348,  -9.665634,   6.617150,   5.820611, -35.278092,  -0.043457,   0.421390,   1.059449, -237.000000, -250.500000, 190.500000,  -1.150501, 170.757136, 110.313184,   0.037816,   0.570085,   0.817505,   0.071837, 
29449,   0.337873,   1.736957,  -9.663970,   6.910215,   5.816545, -35.945064,  -0.049595,   0.418858,   1.069173, -240.000000, -250.500000, 193.500000,  -1.144457, 170.780624, 110.673560,   0.037517,   0.567517,   0.819313,   0.071758, 
29450,   0.099366,   1.748542,  -9.653347,   7.126625,   5.792379, -37.100596,  -0.061154,   0.422665,   1.089773, -246.000000, -247.500000, 199.500000,  -1.142554, 170.818896, 111.041536,   0.037112,   0.564902,   0.821167,   0.071595, 
29451,   0.272987,   1.584180,  -9.670461,   7.360333,   5.822792, -38.011288,  -0.052460,   0.424019,   1.088802, -241.500000, -247.500000, 199.500000,  -1.148599, 170.876640, 111.419720,   0.036548,   0.562205,   0.823051,   0.071331, 
29452,   0.099216,   1.584894,  -9.675296,   7.234762,   6.014768, -38.801236,  -0.049578,   0.421664,   1.078825, -240.000000, -249.000000, 196.500000,  -1.148265, 170.937472, 111.805784,   0.036013,   0.559445,   0.824974,   0.071014, 
29453,   0.152213,   1.605427,  -9.710297,   7.046604,   5.976197, -39.474112,  -0.058444,   0.419495,   1.084335, -244.500000, -249.000000, 198.000000,  -1.148817, 170.999456, 112.199448,   0.035464,   0.556631,   0.826935,   0.070694, 
29454,   0.154699,   1.571001,  -9.634171,   6.876373,   6.072758, -39.804988,  -0.060299,   0.426737,   1.067086, -246.000000, -247.500000, 192.000000,  -1.144652, 171.053440, 112.598544,   0.034987,   0.553766,   0.828911,   0.070406, 
29455,   0.162770,   1.578752,  -9.688990,   6.747595,   5.981294, -40.356316,  -0.068635,   0.429818,   1.068636, -250.500000, -246.000000, 192.000000,  -1.140270, 171.107776, 113.002392,   0.034509,   0.550849,   0.830883,   0.070113, 
29456,   0.172481,   1.485937,  -9.689571,   6.464993,   6.034555, -40.506436,  -0.063727,   0.421036,   1.071370, -247.500000, -249.000000, 193.500000,  -1.132195, 171.167904, 113.409720,   0.034031,   0.547907,   0.832877,   0.069760, 
29457,   0.127462,   1.471348,  -9.690507,   6.002882,   6.168198, -40.674504,  -0.062309,   0.435971,   1.064028, -247.500000, -244.500000, 190.500000,  -1.127337, 171.226432, 113.818920,   0.033539,   0.544952,   0.834878,   0.069433, 
29458,   0.248574,   1.418149,  -9.628853,   5.753040,   6.088780, -40.661264,  -0.078605,   0.449375,   1.077357, -256.500000, -238.500000, 193.500000,  -1.125194, 171.283024, 114.229096,   0.033038,   0.541971,   0.836852,   0.069129, 
29459,   0.178856,   1.549492,  -9.595513,   5.683674,   6.120651, -40.645024,  -0.067030,   0.448375,   1.066408, -250.500000, -240.000000, 190.500000,  -1.123131, 171.328544, 114.639584,   0.032591,   0.538979,   0.838813,   0.068903, 
29460,   0.381700,   1.694440,  -9.458296,   5.932156,   5.963784, -40.670216,  -0.079526,   0.434077,   1.061434, -256.500000, -244.500000, 189.000000,  -1.127977, 171.352160, 115.050552,   0.032198,   0.535981,   0.840760,   0.068870, 
29461,   0.339710,   1.674322,  -9.564327,   7.040548,   5.903106, -40.827332,  -0.093983,   0.437432,   1.082359, -264.000000, -241.500000, 195.000000,  -1.130001, 171.376160, 115.462088,   0.031824,   0.532969,   0.842697,   0.068818, 
29462,   0.326518,   1.571409,  -9.592758,   7.870467,   5.700859, -40.766676,  -0.080444,   0.459424,   1.069760, -258.000000, -235.500000, 190.500000,  -1.132372, 171.417472, 115.873600,   0.031368,   0.529947,   0.844622,   0.068638, 
29463,   0.286646,   1.444082,  -9.639896,   7.611474,   5.759914, -40.738500,  -0.089138,   0.458069,   1.070733, -262.500000, -235.500000, 190.500000,  -1.128016, 171.487312, 116.284976,   0.030832,   0.526931,   0.846567,   0.068215, 
29464,   0.270962,   1.463551,  -9.623935,   7.596893,   5.807744, -40.863516,  -0.101431,   0.450199,   1.080526, -268.500000, -237.000000, 193.500000,  -1.128159, 171.551808, 116.696248,   0.030292,   0.523916,   0.848506,   0.067849, 
29465,   0.327740,   1.524365,  -9.684125,   7.611908,   5.840055, -40.528200,  -0.103270,   0.460247,   1.072930, -270.000000, -234.000000, 190.500000,  -1.131547, 171.608336, 117.106120,   0.029766,   0.520886,   0.850393,   0.067552, 
29466,   0.383645,   1.549444,  -9.663167,   7.148774,   5.731161, -40.382452,  -0.105451,   0.468667,   1.074409, -271.500000, -231.000000, 190.500000,  -1.148599, 171.659600, 117.513848,   0.029167,   0.517875,   0.852260,   0.067352, 
29467,   0.310115,   1.423785,  -9.792391,   6.159552,   5.711282, -40.074596,  -0.102553,   0.469118,   1.074085, -270.000000, -231.000000, 190.500000,  -1.156760, 171.713504, 117.919464,   0.028626,   0.514877,   0.854122,   0.067091, 
29468,   0.228795,   1.373080,  -9.818475,   4.777453,   5.676336, -39.991808,  -0.093688,   0.471287,   1.068576, -265.500000, -231.000000, 189.000000,  -1.160877, 171.766832, 118.322480,   0.028121,   0.511884,   0.855956,   0.066811, 
29469,   0.204737,   1.504444,  -9.719678,   3.579384,   5.783015, -39.575700,  -0.102382,   0.469933,   1.069548, -270.000000, -231.000000, 189.000000,  -1.161577, 171.795264, 118.723136,   0.027755,   0.508890,   0.857748,   0.066698, 
29470,   0.297057,   1.808442,  -9.565079,   3.202488,   5.470785, -39.142512,  -0.102227,   0.467941,   1.055357, -270.000000, -232.500000, 184.500000,  -1.171612, 171.775584, 119.120128,   0.027535,   0.505918,   0.859494,   0.066986, 
29471,   0.191798,   1.602668,  -9.690331,   3.145249,   5.234250, -38.839844,  -0.104905,   0.476723,   1.080102, -271.500000, -228.000000, 192.000000,  -1.168160, 171.766448, 119.511928,   0.027373,   0.502980,   0.861227,   0.067134, 
29472,   0.257541,   1.470835,  -9.698390,   2.666016,   5.145388, -38.649432,  -0.119190,   0.480893,   1.096489, -279.000000, -225.000000, 196.500000,  -1.164663, 171.779632, 119.900432,   0.027113,   0.500051,   0.862924,   0.067111, 
29473,   0.353009,   1.595642,  -9.652937,   2.305322,   5.237080, -38.663384,  -0.121250,   0.481708,   1.064473, -280.500000, -226.500000, 186.000000,  -1.169897, 171.776992, 120.288504,   0.026857,   0.497126,   0.864606,   0.067245, 
29474,   0.447985,   1.777130,  -9.580499,   2.203666,   5.224768, -38.992532,  -0.121096,   0.479716,   1.050283, -280.500000, -228.000000, 181.500000,  -1.188386, 171.746112, 120.679712,   0.026622,   0.494178,   0.866281,   0.067650, 
29475,   0.571298,   1.795899,  -9.632289,   2.510551,   5.051864, -39.229136,  -0.131595,   0.494023,   1.062964, -286.500000, -222.000000, 184.500000,  -1.223443, 171.709952, 121.072984,   0.026279,   0.491215,   0.867943,   0.068165, 
29476,   0.619244,   1.994209,  -9.429173,   2.424690,   4.892006, -39.605216,  -0.133964,   0.498821,   1.059328, -288.000000, -220.500000, 183.000000,  -1.265531, 171.661888, 121.469184,   0.025928,   0.488218,   0.869584,   0.068799, 
29477,   0.629532,   1.885361,  -9.565170,   2.852471,   4.803315, -39.748092,  -0.135740,   0.479450,   1.066093, -288.000000, -226.500000, 186.000000,  -1.313999, 171.629680, 121.867216,   0.025456,   0.485214,   0.871240,   0.069338, 
29478,   0.689300,   1.810522,  -9.631793,   3.203604,   4.677982, -39.356756,  -0.143734,   0.484160,   1.058568, -292.500000, -225.000000, 183.000000,  -1.361117, 171.604560, 122.264648,   0.024963,   0.482216,   0.872898,   0.069816, 
29479,   0.517364,   1.432392,  -9.788218,   2.985214,   4.483277, -38.870424,  -0.133964,   0.498821,   1.059328, -288.000000, -220.500000, 183.000000,  -1.391424, 171.609200, 122.657256,   0.024472,   0.479235,   0.874529,   0.069992, 
29480,   0.072243,   1.205689,  -9.711164,   1.735432,   4.992299, -37.687676,  -0.139540,   0.507152,   1.084396, -291.000000, -216.000000, 190.500000,  -1.367682, 171.665904, 123.041544,   0.024183,   0.476295,   0.876167,   0.069541, 
29481,   1.082437,   1.695710,  -9.690972,   0.561768,   5.193981, -37.043336,  -0.151474,   0.503717,   1.094767, -297.000000, -216.000000, 193.500000,  -1.390569, 171.666144, 123.417072,   0.023778,   0.473436,   0.877720,   0.069712, 
29482,   0.680380,   1.835942,  -9.617679,   0.886337,   4.586697, -35.615532,  -0.151490,   0.500911,   1.085115, -297.000000, -217.500000, 190.500000,  -1.443007, 171.616208, 123.784096,   0.023358,   0.470645,   0.879192,   0.070387, 
29483,   0.402167,   1.046368,  -9.848618,   1.409439,   4.203034, -34.050052,  -0.159484,   0.505621,   1.077589, -301.500000, -216.000000, 187.500000,  -1.467962, 171.637040, 124.132976,   0.022866,   0.467976,   0.880610,   0.070398, 
29484,  -0.116226,   1.166568,  -9.553843,  -0.156174,   4.553939, -33.782572,  -0.158800,   0.508879,   1.059439, -301.500000, -216.000000, 181.500000,  -1.424801, 171.684640, 124.471280,   0.022797,   0.465360,   0.882031,   0.069924, 
29485,   0.753447,   1.483693,  -9.748981,  -0.224196,   4.634514, -33.712264,  -0.153003,   0.509782,   1.058791, -298.500000, -216.000000, 181.500000,  -1.462325, 171.683344, 124.810568,   0.022306,   0.462766,   0.883392,   0.070152, 
29486,   0.271761,   1.474246,  -9.656971,   0.493641,   4.313603, -33.518600,  -0.155869,   0.514943,   1.078420, -300.000000, -213.000000, 187.500000,  -1.474406, 171.659168, 125.149624,   0.022102,   0.460159,   0.884750,   0.070454, 
29487,   0.110211,   1.129054,  -9.576377,   0.306451,   4.492040, -33.500084,  -0.156244,   0.507701,   1.068190, -300.000000, -216.000000, 184.500000,  -1.462857, 171.693424, 125.485064,   0.021848,   0.457561,   0.886107,   0.070207, 
29488,   0.217000,   1.246262,  -9.600878,   0.030960,   4.476505, -33.181388,  -0.171092,   0.501008,   1.069233, -307.500000, -217.500000, 184.500000,  -1.453807, 171.720080, 125.819440,   0.021607,   0.454971,   0.887452,   0.070028, 
29489,   0.407614,   1.157316,  -9.851518,   0.337524,   4.318734, -32.580308,  -0.171947,   0.496936,   1.091920, -307.500000, -217.500000, 192.000000,  -1.469141, 171.751088, 126.149912,   0.021164,   0.452424,   0.888775,   0.069909, 
29490,   0.028651,   0.752072,  -9.734815,   0.675957,   4.021869, -31.328630,  -0.165980,   0.498653,   1.086735, -304.500000, -217.500000, 190.500000,  -1.452167, 171.809104, 126.470288,   0.020873,   0.449944,   0.890087,   0.069452, 
29491,   0.084537,   0.699177,  -9.694893,   0.192874,   4.038931, -29.941176,  -0.179411,   0.506896,   1.080435, -312.000000, -214.500000, 187.500000,  -1.435447, 171.898784, 126.776328,   0.020467,   0.447569,   0.891339,   0.068744, 
29492,   0.084507,   0.568855,  -9.841934,   0.014817,   3.802137, -27.606254,  -0.193339,   0.515501,   1.097400, -319.500000, -210.000000, 192.000000,  -1.431639, 171.893776, 127.065432,   0.020342,   0.445313,   0.892458,   0.068820, 
29493,   0.002041,   0.312032,  -9.788428,   0.125052,   3.282665, -24.750998,  -0.183602,   0.524549,   1.078855, -315.000000, -208.500000, 186.000000,  -1.427424, 171.889664, 127.328464,   0.020233,   0.443260,   0.893476,   0.068882, 
29494,  -0.211928,   0.051505,  -9.680429,  -0.038988,   2.890572, -21.461356,  -0.186175,   0.522920,   1.060452, -316.500000, -210.000000, 180.000000,  -1.423318, 171.885936, 127.561032,   0.020140,   0.441445,   0.894376,   0.068936, 
29495,  -0.329945,  -0.239280, -10.033836,   0.096738,   2.481872, -17.803182,  -0.186875,   0.516856,   1.068949, -316.500000, -211.500000, 183.000000,  -1.421012, 171.882640, 127.758712,   0.020052,   0.439902,   0.895140,   0.068988, 
29496,  -0.734531,  -0.135662,  -9.897502,   0.022269,   1.820471, -13.203197,  -0.190474,   0.510340,   1.077771, -318.000000, -213.000000, 186.000000,  -1.418688, 171.879776, 127.914008,   0.019987,   0.438690,   0.895741,   0.069030, 
29497,  -0.832368,  -0.266739,  -9.743698,   0.129152,   1.274671,  -8.529531,  -0.196612,   0.507808,   1.087493, -321.000000, -213.000000, 189.000000,  -1.416750, 171.878080, 128.022016,   0.019944,   0.437844,   0.896154,   0.069054, 
29498,  -0.830157,  -0.391241,  -9.848225,  -0.615393,   0.689002,  -3.335075,  -0.189415,   0.520840,   1.069850, -318.000000, -210.000000, 183.000000,  -1.416731, 171.876464, 128.080096,   0.019915,   0.437389,   0.896372,   0.069077, 
29499,  -0.224459,  -0.121775,  -9.897232,  -0.592065,   0.328754,   1.053767,  -0.192500,   0.516767,   1.065060, -319.500000, -211.500000, 181.500000,  -1.418390, 171.873392, 128.089400,   0.019908,   0.437316,   0.896405,   0.069109, 
29500,  -0.038474,   0.759081,  -9.862196,  -1.932394,   1.821142,   0.038569,  -0.186454,   0.491872,   1.083888, -315.000000, -219.000000, 189.000000,  -1.416241, 171.899984, 128.087536,   0.019825,   0.437334,   0.896414,   0.068892, 
29501,   0.116719,   1.249197,  -9.688968,  -4.578356,   1.592325,  -0.673474,  -0.183010,   0.500380,   1.089256, -313.500000, -216.000000, 190.500000,  -1.422694, 171.878816, 128.088000,   0.019855,   0.437330,   0.896401,   0.069082, 
29502,   0.981723,   4.547969,  -8.172402,  -3.317512,   0.492931,  -1.131670,  -0.183010,   0.500380,   1.089256, -313.500000, -216.000000, 190.500000,  -1.431145, 171.843472, 128.098432,   0.019917,   0.437246,   0.896417,   0.069393, 
29503,   0.354084,   0.504050, -10.852693,   4.885553,  -0.598464,   1.376131,  -0.190816,   0.508711,   1.086846, -318.000000, -213.000000, 189.000000,  -1.428386, 171.864848, 128.088656,   0.019863,   0.437325,   0.896393,   0.069213, 
29504,  -0.424879,   0.706538,  -9.682751,   2.192260,  -0.500928,   0.094970,  -0.193013,   0.514324,   1.078672, -319.500000, -211.500000, 186.000000,  -1.421025, 171.923680, 128.085208,   0.019699,   0.437358,   0.896417,   0.068724, 
29505,  -0.455413,   0.809191,  -9.842254,  -1.345468,   0.240995,  -0.801115,  -0.193372,   0.509888,   1.078095, -319.500000, -213.000000, 186.000000,  -1.417627, 171.933616, 128.083128,   0.019688,   0.437374,   0.896416,   0.068633, 
29506,   0.225658,   0.202252, -10.346903,  -1.523604,   0.555470,  -0.266611,  -0.199151,   0.511792,   1.088395, -322.500000, -211.500000, 189.000000,  -1.415869, 171.973360, 128.080872,   0.019552,   0.437398,   0.896432,   0.068315, 
29507,  -0.068493,   0.855129, -10.284322,   0.374528,   0.714972,   0.470774,  -0.196595,   0.510614,   1.097146, -321.000000, -211.500000, 192.000000,  -1.420627, 171.956304, 128.081728,   0.019579,   0.437391,   0.896423,   0.068467, 
29508,   0.461363,   2.996960,  -8.732093,  -2.045323,   0.678536,  -0.792349,  -0.194602,   0.498574,   1.090552, -319.500000, -216.000000, 190.500000,  -1.425665, 171.937312, 128.085952,   0.019610,   0.437357,   0.896426,   0.068635, 
29509,   0.249126,   1.401952,  -9.500204,   0.486631,  -0.149428,   0.221672,  -0.194602,   0.498574,   1.090552, -319.500000, -216.000000, 190.500000,  -1.424927, 171.938976, 128.082960,   0.019611,   0.437380,   0.896416,   0.068619, 
29510,   0.191538,   0.403983, -10.391872,   0.805516,  -0.052903,   0.105058,  -0.190115,   0.514775,   1.078348, -318.000000, -211.500000, 186.000000,  -1.410469, 171.975728, 128.078976,   0.019586,   0.437410,   0.896428,   0.068276, 
29511,  -0.298108,   0.741713, -10.124996,   0.190507,   0.268439,   0.043072,  -0.183431,   0.525364,   1.074317, -315.000000, -208.500000, 184.500000,  -1.400328, 172.002736, 128.078096,   0.019563,   0.437416,   0.896444,   0.068026, 
29512,   0.223536,   1.529437,  -9.360178,  -1.674447,   0.655121,  -0.758702,  -0.190457,   0.513146,   1.087423, -318.000000, -211.500000, 189.000000,  -1.400153, 172.015648, 128.078976,   0.019514,   0.437412,   0.896455,   0.067924, 
29513,   0.273509,   2.255918,  -9.270457,  -0.118661,   0.223412,  -0.204815,  -0.188447,   0.503912,   1.090482, -316.500000, -214.500000, 190.500000,  -1.396236, 171.942848, 128.082776,   0.019821,   0.437368,   0.896428,   0.068480, 
29514,   0.129731,   0.816987, -10.190216,   1.393528,   0.005012,   0.292426,  -0.181592,   0.515315,   1.081914, -313.500000, -211.500000, 187.500000,  -1.385191, 171.965360, 128.078152,   0.019824,   0.437402,   0.896427,   0.068261, 
29515,  -0.110762,   0.709096,  -9.836211,  -0.041467,   0.205180,  -0.256507,  -0.187901,   0.511968,   1.096174, -316.500000, -211.500000, 192.000000,  -1.371982, 172.057248, 128.075072,   0.019578,   0.437434,   0.896473,   0.067491, 
29516,   0.034196,   1.450665,  -9.522692,  -0.950287,   0.599437,  -0.496427,  -0.185020,   0.509614,   1.086198, -315.000000, -213.000000, 189.000000,  -1.349588, 172.068480, 128.075456,   0.019711,   0.437422,   0.896488,   0.067318, 
29517,   0.621703,   1.727119,  -9.758650,  -0.068171,   0.153145,  -0.005340,  -0.184865,   0.507622,   1.072007, -315.000000, -214.500000, 184.500000,  -1.387301, 172.006000, 128.077136,   0.019653,   0.437418,   0.896446,   0.067951, 
29518,   0.012604,   1.324544,  -9.728578,   1.934568,  -0.091216,   0.273468,  -0.190987,   0.507896,   1.091383, -318.000000, -213.000000, 190.500000,  -1.366102, 171.975088, 128.075680,   0.019938,   0.437413,   0.896430,   0.068111, 
29519,   0.341366,   1.557475,  -9.441574,   1.672492,  -0.127216,  -0.121690,  -0.190099,   0.517582,   1.088001, -318.000000, -210.000000, 189.000000,  -1.377750, 171.976368, 128.074328,   0.019842,   0.437430,   0.896422,   0.068146, 
29520,   0.155618,   1.798558,  -9.590796,   2.985882,  -0.388807,  -0.238544,  -0.185036,   0.506807,   1.076545, -315.000000, -214.500000, 186.000000,  -1.371584, 171.951280, 128.073880,   0.019987,   0.437426,   0.896407,   0.068318, 
29521,   0.496337,   1.593811,  -9.616263,   4.114621,  -0.657591,  -0.104209,  -0.182122,   0.510065,   1.085874, -313.500000, -213.000000, 189.000000,  -1.387225, 171.948016, 128.072584,   0.019878,   0.437444,   0.896396,   0.068403, 
29522,  -0.309855,  -0.047294,  -9.970080,   4.322345,  -0.459163,  -1.029610,  -0.182105,   0.512871,   1.095526, -313.500000, -211.500000, 192.000000,  -1.363345, 172.074528, 128.071232,   0.019582,   0.437463,   0.896471,   0.067322, 
29523,  -0.463927,   0.056781,  -9.743682,   4.269049,   0.306019,   0.532520,  -0.190628,   0.512332,   1.091960, -318.000000, -211.500000, 190.500000,  -1.261549, 172.315584, 128.067304,   0.019461,   0.437482,   0.896625,   0.065048, 
29524,   0.942519,   2.121347,  -9.474021,   4.474385,   0.504791,   0.451284,  -0.191362,   0.500654,   1.081153, -318.000000, -216.000000, 187.500000,  -1.300345, 172.291104, 128.064040,   0.019253,   0.437523,   0.896587,   0.065387, 
29525,   0.253690,   2.051630,  -9.639007,   5.142331,  -0.008777,   0.249351,  -0.194089,   0.501017,   1.076940, -319.500000, -216.000000, 186.000000,  -1.315983, 172.234688, 128.064648,   0.019345,   0.437517,   0.896553,   0.065888, 
29526,   0.019084,   0.429115,  -9.831959,   6.783260,   0.014585,  -0.050297,  -0.192329,   0.517582,   1.060522, -319.500000, -211.500000, 180.000000,  -1.302787, 172.293968, 128.065296,   0.019222,   0.437515,   0.896593,   0.065374, 
29527,   0.007979,   1.100760,  -9.392436,   5.728516,   0.230419,   0.320979,  -0.177823,   0.522646,   1.068554, -312.000000, -210.000000, 183.000000,  -1.289906, 172.366736, 128.063952,   0.019046,   0.437531,   0.896633,   0.064755, 
29528,   0.454831,   1.475238,  -9.812262,   5.868607,   0.208200,   0.291183,  -0.186859,   0.519662,   1.078602, -316.500000, -210.000000, 186.000000,  -1.307876, 172.408384, 128.060104,   0.018748,   0.437578,   0.896637,   0.064497, 
29529,   0.070078,   1.209589,  -9.896491,   4.541503,  -0.063241,  -0.236897,  -0.195039,   0.520751,   1.065961, -321.000000, -210.000000, 181.500000,  -1.308604, 172.471200, 128.058472,   0.018504,   0.437601,   0.896667,   0.064008, 
29530,   0.033963,   0.947552,  -9.576544,   3.708509,   0.155965,  -0.073922,  -0.191937,   0.527630,   1.080405, -319.500000, -207.000000, 186.000000,  -1.293834, 172.554368, 128.056976,   0.018302,   0.437620,   0.896713,   0.063301, 
29531,   0.080201,   1.249107,  -9.561174,   4.097178,   0.215139,   0.076459,  -0.189023,   0.530888,   1.089733, -318.000000, -205.500000, 189.000000,  -1.282619, 172.601856, 128.055176,   0.018210,   0.437636,   0.896737,   0.062886, 
29532,   0.217325,   1.825227,  -9.661137,   5.503338,   0.213742,  -0.339353,  -0.198279,   0.518671,   1.075360, -322.500000, -210.000000, 184.500000,  -1.282516, 172.620896, 128.052824,   0.018139,   0.437658,   0.896739,   0.062737, 
29533,   0.343862,   1.363597,  -9.419263,   7.780084,   0.072227,  -0.120486,  -0.201536,   0.513784,   1.075107, -324.000000, -211.500000, 184.500000,  -1.299879, 172.638896, 128.052584,   0.017935,   0.437671,   0.896743,   0.062662, 
29534,  -0.055094,   1.023643,  -9.343188,  10.562235,   0.069165,  -0.046377,  -0.181096,   0.514952,   1.058649, -313.500000, -213.000000, 180.000000,  -1.267993, 172.740336, 128.051928,   0.017798,   0.437679,   0.896808,   0.061747, 
29535,   0.439474,   1.367476,  -9.488776,  13.971369,   0.140691,   0.401488,  -0.180191,   0.527444,   1.064919, -313.500000, -208.500000, 181.500000,  -1.264684, 172.847888, 128.049040,   0.017414,   0.437718,   0.896859,   0.060892, 
29536,   0.324447,   1.648328,  -9.393968,  18.733634,  -0.264481,   0.238848,  -0.185083,   0.539033,   1.071837, -316.500000, -204.000000, 183.000000,  -1.265937, 172.975920, 128.047000,   0.016917,   0.437756,   0.896924,   0.059895, 
29537,  -0.042732,   0.880029,  -9.431325,  20.150976,  -0.257946,   0.027335,  -0.182405,   0.530251,   1.047092, -315.000000, -208.500000, 175.500000,  -1.245799, 173.191872, 128.044568,   0.016250,   0.437793,   0.897023,   0.058127, 
29538,   0.127262,   0.847922,  -9.696244,  20.866072,   0.026461,   0.301354,  -0.182405,   0.530251,   1.047092, -315.000000, -208.500000, 175.500000,  -1.228078, 173.456784, 128.038912,   0.015380,   0.437864,   0.897132,   0.055984, 
29539,   0.397894,   1.068264,  -9.926601,  18.890310,  -0.058463,   0.199753,  -0.191766,   0.528445,   1.075867, -319.500000, -207.000000, 184.500000,  -1.247391, 173.672656, 128.034176,   0.014406,   0.437936,   0.897211,   0.054367, 
29540,   0.101557,   0.926730,  -9.754808,  16.700878,  -0.045181,   0.071434,  -0.194306,   0.532429,   1.076769, -321.000000, -205.500000, 184.500000,  -1.238089, 173.869056, 128.031216,   0.013729,   0.437980,   0.897296,   0.052794, 
29541,   0.146859,   0.710126,  -9.680849,  17.284380,  -0.045208,   0.330247,  -0.190536,   0.539759,   1.063410, -319.500000, -204.000000, 180.000000,  -1.222518, 174.077904, 128.027264,   0.013055,   0.438032,   0.897384,   0.051098, 
29542,   0.318871,   1.269178,  -9.434856,  18.211954,  -0.038660,   0.288364,  -0.191830,   0.557864,   1.061506, -321.000000, -198.000000, 178.500000,  -1.222247, 174.229808, 128.023792,   0.012478,   0.438078,   0.897442,   0.049907, 
29543,   0.232971,   1.171306,  -9.367695,  21.045812,  -0.045467,   0.232432,  -0.184616,   0.573703,   1.053515, -318.000000, -193.500000, 175.500000,  -1.220139, 174.381984, 128.021272,   0.011914,   0.438116,   0.897505,   0.048708, 
29544,   0.080888,   1.047057,  -9.272125,  24.866832,  -0.080915,   0.239084,  -0.190942,   0.567550,   1.058124, -321.000000, -195.000000, 177.000000,  -1.200313, 174.588096, 128.018024,   0.011283,   0.438152,   0.897575,   0.047017, 
29545,   0.192829,   1.164143,  -9.241704,  29.477646,  -0.117472,   0.384962,  -0.197626,   0.556961,   1.062154, -324.000000, -198.000000, 178.500000,  -1.189066, 174.819472, 128.014072,   0.010487,   0.438198,   0.897650,   0.045161, 
29546,   0.235147,   0.989340,  -9.394950,  32.946540,  -0.170276,   0.317803,  -0.193872,   0.561485,   1.039142, -322.500000, -198.000000, 171.000000,  -1.186654, 175.101616, 128.009216,   0.009429,   0.438259,   0.897738,   0.042941, 
29547,   0.088959,   0.752659,  -9.546693,  35.762188,  -0.265520,   0.355832,  -0.186643,   0.580130,   1.040805, -319.500000, -192.000000, 171.000000,  -1.175862, 175.446320, 128.003848,   0.008197,   0.438327,   0.897850,   0.040199, 
29548,   0.219639,   0.628910,  -9.700426,  36.887388,  -0.232284,   0.403629,  -0.181765,   0.606380,   1.048483, -318.000000, -183.000000, 172.500000,  -1.171890, 175.820592, 127.997976,   0.006799,   0.438401,   0.897965,   0.037251, 
29549,   0.247370,   0.538652,  -9.844282,  36.552492,  -0.240694,   0.347573,  -0.184679,   0.603122,   1.039155, -319.500000, -184.500000, 169.500000,  -1.175344, 176.202816, 127.992432,   0.005311,   0.438460,   0.898050,   0.034268, 
29550,   0.242425,   0.511485,  -9.841976,  35.727588,  -0.310500,   0.241513,  -0.176343,   0.600041,   1.037605, -315.000000, -186.000000, 169.500000,  -1.177019, 176.578128, 127.987920,   0.003863,   0.438509,   0.898138,   0.031333, 
29551,   0.159594,   0.388022,  -9.684513,  35.382700,  -0.452068,   0.235199,  -0.172932,   0.602936,   1.023669, -313.500000, -186.000000, 165.000000,  -1.170779, 176.948784, 127.983744,   0.002494,   0.438555,   0.898227,   0.028404, 
29552,   0.098034,   0.332072,  -9.651961,  36.010928,  -0.311048,   0.262031,  -0.183620,   0.613622,   1.031235, -319.500000, -181.500000, 166.500000,  -1.154432, 177.319648, 127.979448,   0.001204,   0.438594,   0.898304,   0.025434, 
29553,   0.187965,   0.411325,  -9.566844,  37.230004,  -0.322062,   0.397106,  -0.173509,   0.629912,   1.022920, -315.000000, -177.000000, 163.500000,  -1.143962, 177.688560, 127.974664,  -0.000124,   0.438627,   0.898355,   0.022502, 
29554,   0.181172,   0.434853,  -9.493108,  39.213760,  -0.327004,   0.323139,  -0.178979,   0.627832,   1.004841, -318.000000, -178.500000, 157.500000,  -1.136866, 178.057424, 127.969952,  -0.001479,   0.438660,   0.898405,   0.019583, 
29555,   0.152837,   0.236523,  -9.551881,  41.265168,  -0.411370,   0.405160,  -0.184042,   0.638606,   1.016296, -321.000000, -174.000000, 160.500000,  -1.129622, 178.457376, 127.964952,  -0.002953,   0.438696,   0.898459,   0.016420, 
29556,   0.148986,   0.201641,  -9.534818,  43.309480,  -0.353641,   0.437410,  -0.176845,   0.651638,   0.998653, -318.000000, -171.000000, 154.500000,  -1.118026, 178.883408, 127.959296,  -0.004492,   0.438723,   0.898488,   0.013035, 
29557,   0.187731,   0.038401,  -9.542902,  44.915488,  -0.330470,   0.472920,  -0.164569,   0.656702,   0.979207, -312.000000, -171.000000, 148.500000,  -1.109190, 179.329504, 127.953472,  -0.006130,   0.438744,   0.898504,   0.009504, 
29558,   0.091187,  -0.001917,  -9.577289,  46.485616,  -0.476649,   0.426699,  -0.161296,   0.664396,   0.989113, -310.500000, -168.000000, 151.500000,  -1.094131, 179.793056, 127.947712,  -0.007787,   0.438765,   0.898522,   0.005811, 
29559,   0.202523,  -0.135093,  -9.704025,  47.731388,  -0.389819,   0.572510,  -0.166375,   0.672364,   0.990916, -313.500000, -165.000000, 151.500000,  -1.084980, -179.723152, 127.941280,   0.009567,  -0.438778,  -0.898512,  -0.001983, 
29560,   0.241310,  -0.239687,  -9.789382,  47.568508,  -0.381132,   0.457731,  -0.168368,   0.684404,   0.997510, -315.000000, -160.500000, 153.000000,  -1.088456, -179.227248, 127.934760,   0.011493,  -0.438780,  -0.898481,   0.001890, 
29561,   0.172133,  -0.472089,  -9.867957,  46.614880,  -0.441708,   0.359120,  -0.169490,   0.703324,   0.991069, -316.500000, -154.500000, 150.000000,  -1.085071, -178.724272, 127.929040,   0.013393,  -0.438776,  -0.898453,   0.005846, 
29562,   0.135277,  -0.565819,  -9.910198,  45.301128,  -0.411449,   0.467026,  -0.160300,   0.704315,   0.966832, -312.000000, -156.000000, 142.500000,  -1.075379, -178.227984, 127.923040,   0.015218,  -0.438759,  -0.898388,   0.009773, 
29563,   0.198912,  -0.727256,  -9.988915,  43.171544,  -0.406666,   0.443651,  -0.151280,   0.704492,   0.947132, -307.500000, -157.500000, 136.500000,  -1.074104, -177.739168, 127.916656,   0.017080,  -0.438738,  -0.898311,   0.013609, 
29564,   0.217971,  -0.740101, -10.113897,  39.960264,  -0.381927,   0.356496,  -0.153445,   0.715718,   0.958264, -309.000000, -153.000000, 139.500000,  -1.076002, -177.280080, 127.910952,   0.018853,  -0.438717,  -0.898239,   0.017200, 
29565,   0.106408,  -0.895058, -10.047293,  36.663204,  -0.345074,   0.280215,  -0.159817,   0.741791,   0.958164, -313.500000, -144.000000, 138.000000,  -1.067317, -176.855232, 127.906208,   0.020412,  -0.438679,  -0.898142,   0.020562, 
29566,   0.094390,  -0.874266,  -9.832811,  34.345896,  -0.209093,   0.315123,  -0.159817,   0.741791,   0.958164, -313.500000, -144.000000, 138.000000,  -1.053496, -176.460048, 127.901600,   0.021817,  -0.438643,  -0.898042,   0.023712, 
29567,   0.208813,  -0.809689,  -9.853421,  32.954976,  -0.177997,   0.358372,  -0.168544,   0.734824,   0.939831, -318.000000, -147.000000, 132.000000,  -1.051338, -176.097568, 127.896480,   0.023189,  -0.438615,  -0.897948,   0.026560, 
29568,   0.214914,  -0.767746,  -9.858988,  31.495628,  -0.177109,   0.066718,  -0.172393,   0.754106,   0.929176, -321.000000, -141.000000, 127.500000,  -1.051273, -175.763632, 127.893048,   0.024468,  -0.438578,  -0.897864,   0.029176, 
29569,   0.369099,  -0.724180,  -9.860562,  30.169202,  -0.294687,  -0.525344,  -0.169837,   0.752929,   0.937927, -319.500000, -141.000000, 130.500000,  -1.064203, -175.455280, 127.894744,   0.025749,  -0.438487,  -0.897779,   0.031543, 
29570,   0.373409,  -0.716970,  -9.863082,  28.954068,  -0.364512,  -1.200427,  -0.159742,   0.766412,   0.919960, -315.000000, -138.000000, 124.500000,  -1.083557, -175.170368, 127.902752,   0.026988,  -0.438350,  -0.897727,   0.033702, 
29571,   0.279097,  -0.792167,  -9.825083,  28.177942,  -0.439758,  -1.965536,  -0.153604,   0.768944,   0.910237, -312.000000, -138.000000, 121.500000,  -1.091632, -174.893472, 127.917480,   0.028106,  -0.438166,  -0.897701,   0.035844, 
29572,   0.401373,  -0.726014,  -9.827471,  27.127508,  -0.404715,  -2.935743,  -0.157219,   0.759622,   0.909406, -313.500000, -141.000000, 121.500000,  -1.107266, -174.636464, 127.941416,   0.029203,  -0.437912,  -0.897719,   0.037804, 
29573,   0.456470,  -0.728497,  -9.988964,  25.387004,  -0.588501,  -4.489901,  -0.159587,   0.764420,   0.905770, -315.000000, -139.500000, 120.000000,  -1.132324, -174.404096, 127.977768,   0.030275,  -0.437561,  -0.897792,   0.039538, 
29574,   0.557986,  -0.769353, -10.060629,  22.990532,  -0.731496,  -6.094075,  -0.152903,   0.775009,   0.901739, -312.000000, -136.500000, 118.500000,  -1.167961, -174.190208, 128.030392,   0.031352,  -0.437073,  -0.897914,   0.041092, 
29575,   0.555414,  -0.802333, -10.044408,  20.106810,  -0.956932,  -7.803715,  -0.158340,   0.778541,   0.902965, -315.000000, -135.000000, 118.500000,  -1.206468, -174.004224, 128.100112,   0.032337,  -0.436454,  -0.898110,   0.042421, 
29576,   0.608422,  -0.793691, -10.111023,  16.887468,  -1.109897,  -9.797159,  -0.159805,   0.795832,   0.905599, -316.500000, -129.000000, 118.500000,  -1.245921, -173.851568, 128.188216,   0.033193,  -0.435700,  -0.898388,   0.043492, 
29577,   0.616853,  -0.805949, -10.210772,  13.185322,  -1.459534, -11.811021,  -0.159634,   0.796646,   0.901061, -316.500000, -129.000000, 117.000000,  -1.288780, -173.742608, 128.296528,   0.033902,  -0.434797,  -0.898760,   0.044215, 
29578,   0.461352,  -0.863031, -10.000626,   9.796474,  -1.585621, -13.843568,  -0.156035,   0.803162,   0.892240, -315.000000, -127.500000, 114.000000,  -1.318621, -173.658624, 128.425352,   0.034404,  -0.433747,  -0.899218,   0.044799, 
29579,   0.562031,  -0.844647,  -9.902224,   7.303383,  -1.789749, -15.656827,  -0.149897,   0.805694,   0.882517, -312.000000, -127.500000, 111.000000,  -1.351671, -173.606656, 128.573472,   0.034801,  -0.432552,  -0.899761,   0.045126, 
29580,   0.418737,  -0.957483,  -9.960287,   5.796360,  -1.993575, -17.158486,  -0.153341,   0.797186,   0.877149, -313.500000, -130.500000, 109.500000,  -1.373221, -173.568768, 128.738616,   0.035048,  -0.431233,  -0.900372,   0.045393, 
29581,   0.462279,  -0.911091,  -9.827995,   4.572345,  -2.114294, -18.516300,  -0.156052,   0.800356,   0.882588, -315.000000, -129.000000, 111.000000,  -1.394725, -173.543792, 128.917632,   0.035240,  -0.429810,  -0.901040,   0.045563, 
29582,   0.349558,  -1.053345,  -9.740145,   3.538171,  -2.364942, -19.487538,  -0.160960,   0.809138,   0.879853, -318.000000, -126.000000, 109.500000,  -1.410335, -173.518144, 129.108368,   0.035383,  -0.428296,  -0.901751,   0.045765, 
29583,   0.250380,  -1.169255,  -9.794603,   2.938781,  -2.379141, -20.024306,  -0.160960,   0.809138,   0.879853, -318.000000, -126.000000, 109.500000,  -1.408964, -173.487776, 129.306456,   0.035406,  -0.426732,  -0.902486,   0.046071, 
29584,   0.239487,  -1.167459,  -9.783535,   2.260373,  -2.348882, -20.406436,  -0.160601,   0.813574,   0.880430, -318.000000, -124.500000, 109.500000,  -1.408970, -173.455872, 129.508664,   0.035443,  -0.425128,  -0.903222,   0.046385, 
29585,   0.151463,  -1.248380,  -9.682607,   1.663538,  -2.521256, -20.559186,  -0.165071,   0.800179,   0.902287, -319.500000, -127.500000, 117.000000,  -1.401326, -173.423536, 129.713304,   0.035419,  -0.423505,  -0.903960,   0.046731, 
29586,   0.085539,  -1.194184,  -9.694407,   1.461975,  -2.384357, -20.746574,  -0.171584,   0.790405,   0.901780, -322.500000, -130.500000, 117.000000,  -1.381776, -173.400480, 129.919680,   0.035266,  -0.421877,  -0.904705,   0.047049, 
29587,   0.225816,  -1.186704,  -9.679912,   1.618620,  -2.450534, -20.666730,  -0.173969,   0.792397,   0.888492, -324.000000, -130.500000, 112.500000,  -1.376836, -173.382368, 130.126560,   0.035208,  -0.420240,  -0.905456,   0.047274, 
29588,   0.087070,  -1.275928,  -9.592941,   1.880992,  -2.526579, -20.535612,  -0.178690,   0.804800,   0.890872, -327.000000, -126.000000, 112.500000,  -1.361645, -173.350480, 130.332760,   0.035119,  -0.418608,  -0.906198,   0.047645, 
29589,   0.130849,  -1.290908,  -9.648167,   2.229158,  -2.410871, -20.365332,  -0.175775,   0.808058,   0.900200, -325.500000, -124.500000, 115.500000,  -1.345208, -173.313408, 130.536896,   0.035040,  -0.416993,  -0.906930,   0.048061, 
29590,   0.152505,  -1.293835,  -9.639680,   2.439002,  -2.454049, -20.014704,  -0.178160,   0.810050,   0.886912, -327.000000, -124.500000, 111.000000,  -1.335645, -173.274720, 130.738720,   0.035020,  -0.415391,  -0.907654,   0.048464, 
29591,   0.067008,  -1.346725,  -9.611435,   2.842442,  -2.408658, -19.652630,  -0.180562,   0.809236,   0.863971, -328.500000, -126.000000, 103.500000,  -1.315561, -173.230240, 130.937136,   0.034937,  -0.413814,  -0.908346,   0.048950, 
29592,   0.186203,  -1.252048,  -9.621695,   3.246135,  -2.391551, -19.604364,  -0.185219,   0.792220,   0.880713, -330.000000, -130.500000, 109.500000,  -1.306156, -173.185840, 131.133896,   0.034938,  -0.412243,  -0.909030,   0.049396, 
29593,   0.130430,  -1.241225,  -9.600267,   3.966635,  -2.427338, -19.318572,  -0.187742,   0.799010,   0.891266, -331.500000, -127.500000, 112.500000,  -1.296254, -173.143776, 131.329088,   0.034926,  -0.410685,  -0.909709,   0.049825, 
29594,   0.152391,  -1.277373,  -9.594227,   4.764882,  -2.446393, -19.205680,  -0.187042,   0.805075,   0.882769, -331.500000, -126.000000, 109.500000,  -1.285714, -173.087696, 131.521624,   0.034959,  -0.409145,  -0.910373,   0.050367, 
29595,   0.145774,  -1.231700,  -9.671556,   5.108362,  -2.447164, -19.201910,  -0.184999,   0.801454,   0.905132, -330.000000, -126.000000, 117.000000,  -1.276571, -173.031792, 131.713712,   0.035000,  -0.407607,  -0.911036,   0.050903, 
29596,   0.114820,  -1.246816,  -9.737305,   5.099726,  -2.483660, -19.385416,  -0.190966,   0.799736,   0.910318, -333.000000, -126.000000, 118.500000,  -1.264249, -172.978400, 131.906816,   0.035006,  -0.406065,  -0.911702,   0.051431, 
29597,   0.172471,  -1.272018,  -9.657221,   4.902179,  -2.492245, -19.413852,  -0.197729,   0.815761,   0.890335, -337.500000, -121.500000, 111.000000,  -1.257508, -172.920320, 132.100632,   0.035071,  -0.404510,  -0.912366,   0.051976, 
29598,   0.174718,  -1.255581,  -9.603487,   4.936967,  -2.438679, -19.360300,  -0.191933,   0.816664,   0.889687, -334.500000, -121.500000, 111.000000,  -1.251356, -172.867056, 132.294984,   0.035121,  -0.402948,  -0.913022,   0.052481, 
29599,   0.148844,  -1.303871,  -9.636762,   5.297752,  -2.439888, -19.434674,  -0.192634,   0.810599,   0.898185, -334.500000, -123.000000, 114.000000,  -1.238543, -172.807552, 132.489224,   0.035138,  -0.401384,  -0.913665,   0.053060, 
29600,   0.281987,  -1.170855,  -9.639220,   5.785808,  -2.592489, -19.484224,  -0.192463,   0.811414,   0.893647, -334.500000, -123.000000, 112.500000,  -1.241460, -172.757664, 132.685272,   0.035244,  -0.399801,  -0.914321,   0.053507, 
29601,   0.180239,  -1.247884,  -9.623507,   6.180474,  -2.638167, -19.541608,  -0.188351,   0.820373,   0.871213, -333.000000, -121.500000, 105.000000,  -1.239363, -172.701584, 132.880800,   0.035330,  -0.398222,  -0.914972,   0.054022, 
29602,   0.160430,  -1.358335,  -9.609566,   6.670703,  -2.595804, -19.735622,  -0.190720,   0.825172,   0.867577, -334.500000, -120.000000, 103.500000,  -1.229727, -172.625584, 133.076952,   0.035424,  -0.396637,  -0.915614,   0.054723, 
29603,   0.263034,  -1.217519,  -9.608705,   7.168211,  -2.641094, -19.670026,  -0.200660,   0.809696,   0.871354, -339.000000, -124.500000, 105.000000,  -1.230807, -172.562256, 133.274448,   0.035557,  -0.395039,  -0.916269,   0.055287, 
29604,   0.100833,  -1.402430,  -9.600597,   7.759332,  -2.757323, -19.517630,  -0.201018,   0.805261,   0.870776, -339.000000, -126.000000, 105.000000,  -1.220928, -172.479296, 133.470824,   0.035668,  -0.393450,  -0.916907,   0.056046, 
29605,   0.127903,  -1.329381,  -9.537788,   8.472624,  -2.705679, -19.534962,  -0.191249,   0.819922,   0.871537, -334.500000, -121.500000, 105.000000,  -1.206469, -172.389696, 133.666656,   0.035763,  -0.391863,  -0.917532,   0.056874, 
29606,   0.173308,  -1.329035,  -9.504992,   9.502722,  -2.706930, -19.314768,  -0.196687,   0.823454,   0.872762, -337.500000, -120.000000, 105.000000,  -1.199338, -172.298096, 133.861984,   0.035921,  -0.390271,  -0.918144,   0.057693, 
29607,   0.122228,  -1.345398,  -9.492398,  10.678026,  -2.770295, -18.998344,  -0.207407,   0.828527,   0.861024, -343.500000, -118.500000, 100.500000,  -1.185697, -172.197536, 134.529088,   0.035812,  -0.384894,  -0.920342,   0.058754, 
29608,   0.086283,  -1.462250,  -9.496287,  12.224035,  -2.692328, -18.710134,  -0.207049,   0.832963,   0.861601, -343.500000, -117.000000, 100.500000,  -1.167115, -172.069584, 135.660448,   0.035500,  -0.375759,  -0.924027,   0.060198, 
29609,   0.082899,  -1.433254,  -9.510457,  13.623017,  -2.693300, -18.268296,  -0.200707,   0.841922,   0.866645, -340.500000, -114.000000, 102.000000,  -1.149952, -171.933616, 136.779328,   0.035207,  -0.366690,  -0.927583,   0.061698, 
29610,   0.114366,  -1.540821,  -9.569903,  14.557690,  -2.728020, -17.675520,  -0.206161,   0.842648,   0.858218, -343.500000, -114.000000,  99.000000,  -1.135909, -171.778496, 137.884272,   0.034981,  -0.357696,  -0.931003,   0.063340, 
29611,   0.120636,  -1.608202,  -9.575802,  15.175205,  -2.754591, -17.373290,  -0.210151,   0.826084,   0.847157, -345.000000, -120.000000,  96.000000,  -1.126471, -171.607504, 138.957008,   0.034831,  -0.348919,  -0.934213,   0.065087, 
29612,   0.127690,  -1.497182,  -9.550298,  15.964118,  -2.853825, -17.288034,  -0.207782,   0.821285,   0.850793, -343.500000, -121.500000,  97.500000,  -1.114615, -171.443104, 140.010560,   0.034621,  -0.340270,  -0.937274,   0.066784, 
29613,   0.123133,  -1.472298,  -9.575102,  16.402594,  -2.810638, -17.343358,  -0.215914,   0.830794,   0.867110, -348.000000, -117.000000, 102.000000,  -1.098123, -171.285360, 141.072080,   0.034322,  -0.331535,  -0.940286,   0.068444, 
29614,   0.160061,  -1.533277,  -9.594934,  17.011618,  -2.864986, -17.259284,  -0.218641,   0.831157,   0.862897, -349.500000, -117.000000, 100.500000,  -1.091409, -171.116960, 142.119728,   0.034115,  -0.322882,  -0.943182,   0.070160, 
29615,   0.184011,  -1.513336,  -9.566415,  17.629238,  -2.937722, -17.288586,  -0.211940,   0.844552,   0.868519, -346.500000, -112.500000, 102.000000,  -1.085398, -170.943280, 143.155392,   0.033906,  -0.314294,  -0.945943,   0.071916, 
29616,   0.206296,  -1.570239,  -9.522023,  18.443160,  -3.089682, -17.064748,  -0.211582,   0.848987,   0.869097, -346.500000, -111.000000, 102.000000,  -1.083759, -170.767120, 144.179232,   0.033718,  -0.305777,  -0.948595,   0.073678, 
29617,   0.120390,  -1.685802,  -9.474349,  19.438436,  -3.153573, -16.933076,  -0.217582,   0.841657,   0.854977, -349.500000, -114.000000,  97.500000,  -1.076070, -170.568016, 145.188240,   0.033521,  -0.297363,  -0.951127,   0.075645, 
29618,   0.068827,  -1.676067,  -9.442203,  20.650016,  -3.154829, -16.825952,  -0.225746,   0.845552,   0.851989, -354.000000, -112.500000,  96.000000,  -1.058884, -170.361472, 146.199440,   0.033231,  -0.288916,  -0.953589,   0.077702, 
29619,   0.116064,  -1.734781,  -9.502153,  21.602534,  -3.094786, -16.638401,  -0.213454,   0.853423,   0.842196, -348.000000, -111.000000,  93.000000,  -1.044163, -170.143584, 147.186640,   0.032971,  -0.280637,  -0.955885,   0.079839, 
29620,   0.056179,  -1.820318,  -9.522133,  22.518718,  -3.211863, -16.311281,  -0.207845,   0.850705,   0.836432, -345.000000, -112.500000,  91.500000,  -1.026519, -169.914352, 148.148992,   0.032697,  -0.272545,  -0.958033,   0.082071, 
29621,   0.076850,  -1.888293,  -9.487206,  23.103966,  -3.121661, -15.995725,  -0.219779,   0.847270,   0.846803, -351.000000, -112.500000,  94.500000,  -1.007592, -169.670992, 149.102480,   0.032416,  -0.264513,  -0.960096,   0.084424, 
29622,   0.122907,  -1.879981,  -9.502790,  23.509974,  -3.210942, -15.681467,  -0.223628,   0.866552,   0.836149, -354.000000, -106.500000,  90.000000,  -0.996800, -169.424000, 150.056880,   0.032174,  -0.256443,  -0.962065,   0.086788, 
29623,   0.128163,  -1.921362,  -9.611371,  23.634104,  -3.235052, -15.313071,  -0.224767,   0.882665,   0.820055, -355.500000, -102.000000,  84.000000,  -0.984791, -169.180992, 151.011040,   0.031876,  -0.248366,  -0.963979,   0.089123, 
29624,   0.103749,  -2.054356,  -9.469480,  23.798186,  -3.295547, -15.084128,  -0.211540,   0.867995,   0.811588, -348.000000, -108.000000,  82.500000,  -0.976197, -168.920720, 151.925856,   0.031638,  -0.240603,  -0.965746,   0.091589, 
