Standard output of YIS Manager:
  TID,     AccX,     AccY,     AccZ,    AngVX,    AngVY,    AngVZ,     MagX,     MagY,     MagZ, NormMagX, NormMagY, NormMagZ,    Pitch,     Roll,      Yaw,       q0,       q1,       q2,       q3, 
30697,   0.169038,   9.819976,   0.114582,  -0.136065,   0.224159,  -0.065747,   0.194554,  -0.936044,  -0.362838, -69.000000, -798.000000, -198.000000,  -0.953237,  89.298168,  35.666688,   0.675392,   0.670749,   0.209568,   0.223418, 
30698,   0.163992,   9.807144,   0.141684,  -0.130505,   0.204284,  -0.084412,   0.196222,  -0.946906,  -0.350704, -67.500000, -801.000000, -193.500000,  -0.956976,  89.295168,  35.624184,   0.675485,   0.670817,   0.209291,   0.223195, 
30699,   0.167899,   9.826491,   0.108677,  -0.016067,   0.197068,  -0.091015,   0.198795,  -0.945277,  -0.332301, -66.000000, -799.500000, -187.500000,  -0.955307,  89.297232,  35.595068,   0.675534,   0.670879,   0.209135,   0.223010, 
30700,   0.114677,   9.799578,   0.080983,  -0.069558,   0.196357,  -0.060673,   0.195897,  -0.945729,  -0.331977, -67.500000, -799.500000, -187.500000,  -0.954064,  89.299368,  35.574460,   0.675564,   0.670928,   0.209026,   0.222878, 
30701,   0.239726,   9.833829,   0.137545,  -0.153838,   0.161880,  -0.075752,   0.191427,  -0.959124,  -0.310120, -69.000000, -802.500000, -180.000000,  -0.961832,  89.299056,  35.563112,   0.675573,   0.670961,   0.208913,   0.222857, 
30702,   0.093433,   9.869399,   0.148544,  -0.099883,   0.212084,  -0.091671,   0.182562,  -0.961293,  -0.304610, -73.500000, -802.500000, -178.500000,  -0.960199,  89.294408,  35.553876,   0.675621,   0.670948,   0.208860,   0.222801, 
30703,   0.141801,   9.775748,   0.123792,  -0.282966,   0.126496,  -0.095209,   0.181765,  -0.943551,  -0.329779, -75.000000, -798.000000, -187.500000,  -0.955088,  89.300400,  35.525240,   0.675652,   0.671026,   0.208734,   0.222592, 
30704,   0.161414,   9.825010,   0.143250,  -0.374642,   0.212622,  -0.110161,   0.181765,  -0.943551,  -0.329779, -75.000000, -798.000000, -187.500000,  -0.954930,  89.296840,  35.489584,   0.675743,   0.671070,   0.208519,   0.222387, 
30705,   0.171580,   9.823565,   0.085686,  -0.402615,   0.180010,  -0.121685,   0.187032,  -0.947898,  -0.326467, -72.000000, -799.500000, -186.000000,  -0.955328,  89.298952,  35.457388,   0.675793,   0.671143,   0.208333,   0.222196, 
30706,   0.160514,   9.798138,   0.119225,  -0.368472,   0.153067,  -0.156600,   0.197907,  -0.954963,  -0.328918, -66.000000, -802.500000, -186.000000,  -0.955323,  89.292192,  35.437664,   0.675871,   0.671139,   0.208204,   0.222092, 
30707,   0.131836,   9.805958,   0.108394,  -0.393776,   0.225048,  -0.007650,   0.194309,  -0.961479,  -0.320096, -67.500000, -804.000000, -183.000000,  -0.953635,  89.292232,  35.423380,   0.675902,   0.671162,   0.208131,   0.221998, 
30708,   0.165483,   9.838878,   0.127552,  -0.282338,   0.188725,  -0.102800,   0.188496,  -0.965188,  -0.329101, -70.500000, -805.500000, -186.000000,  -0.951982,  89.289864,  35.404912,   0.675956,   0.671179,   0.208028,   0.221884, 
30709,   0.158679,   9.789875,   0.118026,  -0.453830,   0.215844,  -0.095504,   0.191035,  -0.969172,  -0.330003, -69.000000, -807.000000, -186.000000,  -0.951988,  89.287488,  35.381236,   0.676016,   0.671209,   0.207885,   0.221749, 
30710,   0.159837,   9.787493,   0.124524,  -0.591966,   0.145115,  -0.072173,   0.189213,  -0.956318,  -0.327946, -70.500000, -802.500000, -186.000000,  -0.951977,  89.282400,  35.358472,   0.676090,   0.671221,   0.207742,   0.221624, 
30711,   0.154065,   9.765203,   0.047745,  -1.158040,   0.199323,  -0.164476,   0.186861,  -0.948712,  -0.321930, -72.000000, -799.500000, -184.500000,  -0.950406,  89.282568,  35.334004,   0.676140,   0.671264,   0.207608,   0.221470, 
30712,   0.162975,   9.740369,   0.036581,  -1.964970,   0.237030,  -0.111775,   0.187049,  -0.945091,  -0.316815, -72.000000, -798.000000, -183.000000,  -0.947329,  89.280296,  35.311980,   0.676203,   0.671285,   0.207493,   0.221327, 
30713,   0.137194,   9.721011,   0.016310,  -2.986417,   0.283895,  -0.104789,   0.184851,  -0.939479,  -0.324988, -73.500000, -796.500000, -186.000000,  -0.945714,  89.269800,  35.287700,   0.676315,   0.671265,   0.207341,   0.221194, 
30714,   0.140795,   9.747532,   0.046454,  -3.957174,   0.241549,  -0.124938,   0.187561,  -0.942648,  -0.330427, -72.000000, -798.000000, -187.500000,  -0.939868,  89.248784,  35.257268,   0.676508,   0.671186,   0.207157,   0.221018, 
30715,   0.181935,   9.741970,   0.088068,  -4.909824,   0.287949,  -0.178123,   0.195693,  -0.952157,  -0.346744, -67.500000, -802.500000, -192.000000,  -0.941900,  89.213064,  35.229176,   0.676769,   0.671031,   0.206912,   0.220929, 
30716,   0.179141,   9.748552,   0.049691,  -5.708796,   0.254246,  -0.170118,   0.192624,  -0.953423,  -0.341883, -69.000000, -802.500000, -190.500000,  -0.940321,  89.171720,  35.199572,   0.677072,   0.670838,   0.206668,   0.220820, 
30717,   0.147292,   9.713267,   0.027593,  -6.636399,   0.238625,  -0.163209,   0.184663,  -0.943099,  -0.330103, -73.500000, -798.000000, -187.500000,  -0.938270,  89.125456,  35.168724,   0.677408,   0.670618,   0.206411,   0.220709, 
30718,   0.303338,   9.649977,   0.037566,  -8.250511,   0.268984,  -0.171748,   0.184989,  -0.944277,  -0.348831, -73.500000, -799.500000, -193.500000,  -0.942477,  89.073600,  35.124388,   0.677789,   0.670399,   0.206027,   0.220565, 
30719,   0.063145,   9.681072,   0.045830, -10.122160,   0.308861,  -0.174252,   0.187870,  -0.946632,  -0.358807, -72.000000, -801.000000, -196.500000,  -0.936504,  89.000024,  35.073972,   0.678326,   0.670042,   0.205626,   0.220364, 
30720,   0.180430,   9.645145,   0.043728, -11.805449,   0.295026,  -0.158230,   0.192031,  -0.929253,  -0.352284, -70.500000, -795.000000, -195.000000,  -0.926767,  88.914568,  35.031980,   0.678925,   0.669594,   0.205274,   0.220212, 
30721,   0.143456,   9.607635,  -0.042146, -13.994440,   0.352790,  -0.285754,   0.185893,  -0.931785,  -0.342561, -73.500000, -795.000000, -192.000000,  -0.924603,  88.815552,  34.994872,   0.679580,   0.669070,   0.204880,   0.220157, 
30722,   0.150817,   9.577016,  -0.117062, -16.699047,   0.394582,  -0.288697,   0.184647,  -0.945906,  -0.339756, -73.500000, -799.500000, -190.500000,  -0.915957,  88.705232,  34.955516,   0.680318,   0.668472,   0.204491,   0.220071, 
30723,   0.175138,   9.540587,   0.034175, -19.687388,   0.401471,  -0.286684,   0.196394,  -0.946092,  -0.355242, -67.500000, -801.000000, -195.000000,  -0.913959,  88.551792,  34.926312,   0.681274,   0.667610,   0.204038,   0.220160, 
30724,   0.157205,   9.614385,   0.110813, -22.091274,   0.451219,  -0.338391,   0.195897,  -0.945729,  -0.331977, -67.500000, -799.500000, -187.500000,  -0.907486,  88.367768,  34.918176,   0.682367,   0.666512,   0.203674,   0.220399, 
30725,   0.160507,   9.682646,   0.258425, -23.901940,   0.570762,  -0.391026,   0.187203,  -0.947083,  -0.331004, -72.000000, -799.500000, -187.500000,  -0.903642,  88.145824,  34.909136,   0.683677,   0.665194,   0.203216,   0.220716, 
30726,   0.147782,   9.685586,   0.293742, -25.250186,   0.574055,  -0.353602,   0.187699,  -0.947446,  -0.354269, -72.000000, -801.000000, -195.000000,  -0.900323,  87.911288,  34.884756,   0.685088,   0.663828,   0.202642,   0.220966, 
30727,   0.195406,   9.695870,   0.379088, -26.555340,   0.585927,  -0.359066,   0.191469,  -0.940116,  -0.367629, -70.500000, -799.500000, -199.500000,  -0.900593,  87.656112,  34.859908,   0.686613,   0.662346,   0.202005,   0.221269, 
30728,   0.155221,   9.702506,   0.394137, -27.629056,   0.552709,  -0.380188,   0.200521,  -0.934326,  -0.368023, -66.000000, -798.000000, -199.500000,  -0.899674,  87.393072,  34.848332,   0.688160,   0.660792,   0.201436,   0.221659, 
30729,   0.197305,   9.668530,   0.460526, -28.840628,   0.475406,  -0.386205,   0.197469,  -0.932785,  -0.353509, -67.500000, -796.500000, -195.000000,  -0.900279,  87.115504,  34.849776,   0.689759,   0.659125,   0.200905,   0.222160, 
30730,   0.113866,   9.679421,   0.504764, -30.103202,   0.442434,  -0.444215,   0.197982,  -0.930342,  -0.367122, -67.500000, -796.500000, -199.500000,  -0.893629,  86.826656,  34.841160,   0.691439,   0.657380,   0.200333,   0.222573, 
30731,   0.263487,   9.712675,   0.727214, -31.223752,   0.008849,  -0.499074,   0.198682,  -0.924278,  -0.375619, -67.500000, -795.000000, -202.500000,  -0.899372,  86.512960,  34.836788,   0.693231,   0.655500,   0.199662,   0.223126, 
30732,   0.335367,   9.774282,   0.808054, -31.757968,  -1.938890,  -0.661406,   0.195768,  -0.927535,  -0.384948, -69.000000, -796.500000, -205.500000,  -0.929264,  86.182184,  34.823036,   0.695095,   0.653578,   0.198757,   0.223788, 
30733,   0.250046,   9.816342,   0.938660, -31.586234,  -3.704380,  -0.817557,   0.195922,  -0.929528,  -0.399137, -69.000000, -798.000000, -210.000000,  -0.942977,  85.844544,  34.779996,   0.697085,   0.651634,   0.197770,   0.224191, 
30734,   0.268697,   9.890648,   0.979374, -30.301592,  -4.941366,  -0.916279,   0.193975,  -0.949713,  -0.387835, -69.000000, -804.000000, -205.500000,  -0.954747,  85.511776,  34.736488,   0.699031,   0.649698,   0.196798,   0.224563, 
30735,   0.239049,   9.859743,   1.068181, -29.044822,  -6.099152,  -1.002298,   0.197232,  -0.944826,  -0.387582, -67.500000, -802.500000, -205.500000,  -0.962925,  85.189120,  34.690176,   0.700929,   0.647817,   0.195851,   0.224878, 
30736,   0.275424,   9.828845,   1.149350, -27.746180,  -7.074150,  -1.082674,   0.204070,  -0.936229,  -0.405802, -64.500000, -801.000000, -211.500000,  -0.979473,  84.875104,  34.634184,   0.702782,   0.646020,   0.194817,   0.225163, 
30737,   0.363139,   9.832794,   1.165088, -26.762574,  -8.478155,  -1.313389,   0.201702,  -0.931431,  -0.409438, -66.000000, -799.500000, -213.000000,  -1.003365,  84.573064,  34.568244,   0.704575,   0.644327,   0.193706,   0.225406, 
30738,   0.301617,   9.833381,   1.194991, -25.669908,  -9.936384,  -1.467474,   0.194238,  -0.921471,  -0.420923, -70.500000, -796.500000, -217.500000,  -1.021904,  84.284936,  34.470068,   0.706356,   0.642756,   0.192474,   0.225391, 
30739,   0.309844,   9.824615,   1.161013, -24.140220, -11.214174,  -1.704436,   0.192040,  -0.915858,  -0.429097, -72.000000, -795.000000, -220.500000,  -1.037213,  84.019136,  34.350392,   0.708047,   0.641339,   0.191184,   0.225181, 
30740,   0.236690,   9.868602,   1.146137, -22.658962, -12.062311,  -1.828896,   0.188442,  -0.922374,  -0.420276, -73.500000, -796.500000, -217.500000,  -1.045232,  83.776288,  34.224068,   0.709637,   0.640060,   0.189950,   0.224847, 
30741,   0.250625,   9.843910,   1.082421, -21.421612, -12.676482,  -1.924810,   0.188597,  -0.924366,  -0.434466, -73.500000, -798.000000, -222.000000,  -1.051467,  83.556768,  34.080856,   0.711134,   0.638950,   0.188683,   0.224358, 
30742,   0.283268,   9.814686,   1.120480, -20.406050, -13.536523,  -2.073951,   0.190714,  -0.903366,  -0.450306, -73.500000, -792.000000, -228.000000,  -1.063126,  83.350208,  33.923372,   0.712579,   0.637953,   0.187330,   0.223785, 
30743,   0.270606,   9.854723,   1.154971, -19.330440, -14.303723,  -2.209178,   0.190731,  -0.900560,  -0.440653, -73.500000, -790.500000, -225.000000,  -1.073163,  83.155048,  33.769432,   0.713957,   0.637016,   0.186033,   0.223203, 
30744,   0.298186,   9.790168,   1.243329, -18.386536, -15.170433,  -2.341821,   0.190201,  -0.905810,  -0.436693, -73.500000, -792.000000, -223.500000,  -1.088420,  82.967736,  33.616588,   0.715271,   0.636126,   0.184725,   0.222638, 
30745,   0.363628,   9.722480,   1.166590, -17.912608, -16.103662,  -2.550447,   0.194142,  -0.897664,  -0.454589, -72.000000, -790.500000, -229.500000,  -1.106777,  82.794768,  33.448006,   0.716516,   0.635341,   0.183336,   0.221961, 
30746,   0.335717,   9.678479,   1.162680, -18.244956, -17.423410,  -2.745813,   0.196682,  -0.901648,  -0.455491, -70.500000, -792.000000, -229.500000,  -1.121957,  82.624944,  33.274230,   0.717760,   0.634576,   0.181948,   0.221225, 
30747,   0.371129,   9.665865,   1.090018, -19.137162, -18.831274,  -3.030139,   0.193954,  -0.901286,  -0.459705, -72.000000, -792.000000, -231.000000,  -1.145214,  82.463600,  33.083950,   0.718977,   0.633905,   0.180436,   0.220414, 
30748,   0.380352,   9.644220,   1.056760, -20.152334, -20.205616,  -3.190482,   0.197928,  -0.887527,  -0.458296, -70.500000, -787.500000, -231.000000,  -1.161019,  82.292896,  32.885064,   0.720276,   0.633174,   0.178909,   0.219520, 
30749,   0.307434,   9.648697,   1.138843, -20.971434, -21.478874,  -3.600222,   0.199500,  -0.874584,  -0.479828, -70.500000, -784.500000, -238.500000,  -1.175702,  82.113952,  32.660672,   0.721672,   0.632427,   0.177236,   0.218468, 
30750,   0.307653,   9.705759,   1.171342, -21.608738, -22.571714,  -3.822959,   0.198937,  -0.885447,  -0.495174, -70.500000, -789.000000, -243.000000,  -1.188896,  81.929160,  32.417594,   0.723142,   0.631668,   0.175463,   0.217295, 
30751,   0.329590,   9.709838,   1.260754, -21.745688, -23.432408,  -4.037993,   0.200418,  -0.899931,  -0.488155, -69.000000, -793.500000, -240.000000,  -1.196955,  81.737560,  32.178410,   0.724638,   0.630838,   0.173732,   0.216121, 
30752,   0.336874,   9.766901,   1.276651, -21.501898, -23.997378,  -4.238744,   0.204375,  -0.888980,  -0.496399, -67.500000, -790.500000, -243.000000,  -1.205215,  81.545440,  31.934586,   0.726140,   0.630004,   0.171977,   0.214912, 
30753,   0.379064,   9.799234,   1.381840, -20.717788, -24.519638,  -4.347687,   0.211042,  -0.881197,  -0.510082, -64.500000, -789.000000, -247.500000,  -1.213361,  81.352712,  31.688994,   0.727636,   0.629155,   0.170213,   0.213684, 
30754,   0.298789,   9.765483,   1.487055, -19.981964, -24.936908,  -4.630324,   0.214282,  -0.879117,  -0.519481, -63.000000, -789.000000, -250.500000,  -1.224782,  81.163856,  31.442286,   0.729110,   0.628337,   0.168435,   0.212456, 
30755,   0.444611,   9.752630,   1.443149, -19.086474, -25.568760,  -4.665530,   0.208845,  -0.875584,  -0.518256, -66.000000, -787.500000, -250.500000,  -1.241379,  80.986520,  31.190426,   0.730524,   0.627607,   0.166621,   0.211203, 
30756,   0.356169,   9.703274,   1.448489, -18.517304, -26.231422,  -4.880871,   0.212273,  -0.869883,  -0.522539, -64.500000, -786.000000, -252.000000,  -1.251701,  80.818296,  30.934856,   0.731905,   0.626928,   0.164849,   0.209874, 
30757,   0.431807,   9.626657,   1.420411, -18.824470, -26.939588,  -5.112476,   0.198466,  -0.868883,  -0.539070, -72.000000, -786.000000, -258.000000,  -1.267007,  80.660312,  30.647474,   0.733263,   0.626348,   0.162889,   0.208343, 
30758,   0.409099,   9.672814,   1.505519, -19.322768, -27.886960,  -5.432631,   0.195535,  -0.874947,  -0.558051, -73.500000, -789.000000, -264.000000,  -1.279567,  80.490928,  30.341924,   0.734720,   0.625715,   0.160832,   0.206693, 
30759,   0.343260,   9.669580,   1.482600, -19.479172, -28.991138,  -5.723763,   0.198588,  -0.876487,  -0.572564, -72.000000, -790.500000, -268.500000,  -1.295538,  80.320392,  30.025688,   0.736200,   0.625093,   0.158698,   0.204989, 
30760,   0.334491,   9.705087,   1.474296, -19.332574, -29.846896,  -6.007144,   0.196969,  -0.857205,  -0.555741, -73.500000, -783.000000, -264.000000,  -1.306092,  80.145840,  29.712306,   0.737706,   0.624429,   0.156613,   0.203275, 
30761,   0.179136,   9.734550,   1.540437, -18.571784, -30.222964,  -6.144691,   0.204199,  -0.838560,  -0.554079, -70.500000, -777.000000, -264.000000,  -1.305406,  79.977632,  29.402154,   0.739167,   0.623762,   0.154630,   0.201500, 
30762,   0.141831,   9.750557,   1.593285, -17.737530, -30.109718,  -6.237923,   0.195131,  -0.847156,  -0.563336, -75.000000, -780.000000, -267.000000,  -1.298143,  79.821272,  29.075640,   0.740588,   0.623168,   0.152624,   0.199559, 
30763,   0.160694,   9.740323,   1.653025, -16.909336, -29.729252,  -6.265555,   0.204696,  -0.838923,  -0.577344, -70.500000, -778.500000, -271.500000,  -1.282986,  79.675528,  28.754824,   0.741954,   0.622622,   0.150726,   0.197593, 
30764,   0.155833,   9.664841,   1.579167, -16.793086, -29.248744,  -6.186114,   0.208978,  -0.829149,  -0.604315, -69.000000, -777.000000, -280.500000,  -1.262076,  79.539760,  28.425442,   0.743289,   0.622142,   0.148840,   0.195524, 
30765,   0.212302,   9.657339,   1.676369, -17.131936, -28.794756,  -6.277513,   0.208074,  -0.841641,  -0.610585, -69.000000, -781.500000, -282.000000,  -1.253264,  79.398640,  28.108690,   0.744614,   0.621627,   0.146941,   0.193604, 
30766,   0.314902,   9.518745,   1.622155, -18.315630, -28.649492,  -6.235755,   0.186854,  -0.822261,  -0.609643, -81.000000, -774.000000, -283.500000,  -1.249579,  79.254128,  27.780866,   0.745945,   0.621092,   0.144943,   0.191634, 
30767,   0.347675,   9.499075,   1.641861, -19.543926, -28.700644,  -6.354630,   0.192804,  -0.823350,  -0.624481, -78.000000, -775.500000, -288.000000,  -1.247080,  79.096104,  27.448326,   0.747357,   0.620475,   0.142895,   0.189652, 
30768,   0.249095,   9.528241,   1.743835, -21.247468, -29.080778,  -6.658645,   0.203662,  -0.833221,  -0.636585, -72.000000, -780.000000, -291.000000,  -1.246629,  78.915224,  27.125738,   0.748874,   0.619699,   0.140855,   0.187769, 
30769,   0.257715,   9.500337,   1.795224, -22.449360, -29.060638,  -6.741151,   0.198909,  -0.826431,  -0.653509, -75.000000, -778.500000, -297.000000,  -1.243376,  78.718456,  26.801446,   0.750484,   0.618813,   0.138806,   0.185874, 
30770,   0.105469,   9.606486,   1.926359, -23.117734, -28.935168,  -6.859423,   0.201415,  -0.836028,  -0.673716, -73.500000, -783.000000, -303.000000,  -1.228335,  78.503280,  26.488140,   0.752159,   0.617746,   0.136865,   0.183995, 
30771,   0.232644,   9.550933,   1.969170, -23.516046, -28.382206,  -6.758255,   0.198551,  -0.830866,  -0.654086, -75.000000, -780.000000, -297.000000,  -1.220339,  78.284904,  26.183566,   0.753822,   0.616652,   0.134926,   0.182207, 
30772,   0.105457,   9.615661,   2.076857, -23.388864, -27.679804,  -6.770483,   0.196573,  -0.816019,  -0.637840, -76.500000, -774.000000, -292.500000,  -1.191487,  78.054624,  25.875876,   0.755582,   0.615451,   0.133098,   0.180295, 
30773,   0.178661,   9.578002,   2.148787, -23.236134, -26.995122,  -6.756635,   0.208336,  -0.813399,  -0.643674, -70.500000, -774.000000, -294.000000,  -1.172595,  77.826176,  25.592554,   0.757281,   0.614247,   0.131347,   0.178589, 
30774,   0.082919,   9.515105,   2.178128, -22.966092, -26.595078,  -6.685633,   0.203754,  -0.805794,  -0.665136, -73.500000, -772.500000, -301.500000,  -1.150570,  77.591472,  25.316252,   0.759007,   0.612987,   0.129651,   0.176914, 
30775,   0.135447,   9.461735,   2.163139, -23.091306, -26.257534,  -6.837668,   0.194467,  -0.782979,  -0.674564, -79.500000, -765.000000, -306.000000,  -1.131982,  77.362120,  25.028050,   0.760697,   0.611762,   0.127882,   0.175161, 
30776,   0.055486,   9.441314,   2.197349, -24.188444, -26.059566,  -6.889751,   0.202786,  -0.788866,  -0.685767, -75.000000, -768.000000, -309.000000,  -1.111475,  77.127488,  24.739572,   0.762401,   0.610484,   0.126122,   0.173393, 
30777,   0.306526,   9.300861,   2.183190, -26.008678, -26.046980,  -6.987907,   0.204422,  -0.805343,  -0.692938, -73.500000, -774.000000, -310.500000,  -1.110873,  76.883168,  24.466668,   0.764108,   0.609150,   0.124305,   0.171838, 
30778,   0.151534,   9.372087,   2.352641, -27.943248, -26.346618,  -7.310443,   0.193359,  -0.801899,  -0.695602, -79.500000, -772.500000, -312.000000,  -1.101366,  76.609944,  24.189192,   0.765987,   0.607614,   0.122488,   0.170230, 
30779,   0.302794,   9.329457,   2.385018, -29.448926, -26.664132,  -7.454513,   0.206181,  -0.788778,  -0.709355, -73.500000, -769.500000, -316.500000,  -1.102732,  76.317424,  23.914052,   0.767953,   0.605959,   0.120591,   0.168708, 
30780,   0.193160,   9.332020,   2.516399, -30.526294, -27.126094,  -7.822707,   0.210668,  -0.772576,  -0.721560, -72.000000, -765.000000, -321.000000,  -1.098827,  76.004000,  23.643630,   0.770009,   0.604133,   0.118730,   0.167201, 
30781,   0.233479,   9.394429,   2.552152, -31.628394, -27.471998,  -8.119488,   0.202486,  -0.771487,  -0.734200, -76.500000, -765.000000, -325.500000,  -1.096165,  75.679808,  23.364504,   0.772113,   0.602226,   0.116806,   0.165639, 
30782,   0.181184,   9.351276,   2.673897, -32.301400, -27.836392,  -8.359652,   0.204700,  -0.774294,  -0.716374, -75.000000, -765.000000, -319.500000,  -1.093869,  75.340208,  23.077878,   0.774304,   0.600217,   0.114829,   0.164035, 
30783,   0.219695,   9.370645,   2.661214, -33.085090, -28.120956,  -8.695350,   0.202503,  -0.768681,  -0.724548, -76.500000, -763.500000, -322.500000,  -1.088410,  75.001352,  22.784224,   0.776506,   0.598213,   0.112848,   0.162357, 
30784,   0.169337,   9.261504,   2.673158, -33.900368, -28.083982,  -8.790704,   0.197358,  -0.771939,  -0.761355, -79.500000, -766.500000, -334.500000,  -1.075740,  74.662624,  22.487942,   0.778719,   0.596200,   0.110915,   0.160615, 
30785,   0.210461,   9.256778,   2.582575, -35.360328, -28.135186,  -9.025271,   0.198433,  -0.758633,  -0.759622, -79.500000, -762.000000, -334.500000,  -1.058153,  74.326352,  22.190900,   0.780887,   0.594164,   0.109022,   0.158823, 
30786,   0.143611,   9.281355,   2.716914, -37.027380, -28.191874,  -9.265118,   0.202032,  -0.752116,  -0.768443, -78.000000, -760.500000, -337.500000,  -1.043827,  73.968544,  21.893324,   0.783153,   0.591976,   0.107085,   0.157054, 
30787,   0.247614,   9.231941,   2.827754, -38.495732, -28.326302,  -9.541869,   0.199101,  -0.758181,  -0.787425, -79.500000, -763.500000, -343.500000,  -1.040375,  73.588104,  21.594636,   0.785527,   0.589646,   0.105051,   0.155344, 
30788,   0.206640,   9.280720,   2.920925, -39.337400, -28.790914,  -9.935556,   0.197979,  -0.739262,  -0.793866, -81.000000, -757.500000, -346.500000,  -1.032481,  73.189664,  21.291878,   0.788006,   0.587187,   0.103016,   0.153590, 
30789,   0.251099,   9.283516,   3.050897, -39.903836, -29.305508, -10.314529,   0.195969,  -0.730028,  -0.796924, -82.500000, -754.500000, -348.000000,  -1.038991,  72.781504,  20.983436,   0.790492,   0.584655,   0.100849,   0.151861, 
30790,   0.165620,   9.263661,   3.144607, -40.012968, -30.098380, -10.786239,   0.199909,  -0.721882,  -0.814821, -81.000000, -753.000000, -354.000000,  -1.034550,  72.362400,  20.667366,   0.793034,   0.582020,   0.098717,   0.150017, 
30791,   0.270617,   9.306068,   3.273550, -39.753860, -30.814388, -11.331820,   0.204225,  -0.706496,  -0.822487, -79.500000, -748.500000, -357.000000,  -1.045606,  71.943696,  20.342444,   0.795573,   0.579411,   0.096450,   0.148178, 
30792,   0.321119,   9.282175,   3.300008, -38.896120, -31.576918, -11.813613,   0.200563,  -0.683592,  -0.828027, -82.500000, -741.000000, -360.000000,  -1.063561,  71.528656,  20.008918,   0.798084,   0.576828,   0.094109,   0.146295, 
30793,   0.381479,   9.159131,   3.238866, -38.624044, -32.227474, -12.310507,   0.198520,  -0.679971,  -0.850390, -84.000000, -741.000000, -367.500000,  -1.076074,  71.132392,  19.666250,   0.800499,   0.574358,   0.091798,   0.144289, 
30794,   0.235748,   9.251017,   3.294629, -38.916076, -32.997390, -12.821536,   0.207010,  -0.685044,  -0.866130, -79.500000, -744.000000, -372.000000,  -1.081577,  70.736784,  19.315882,   0.802902,   0.571868,   0.089512,   0.142177, 
30795,   0.189869,   9.102862,   3.408548, -38.744276, -33.227368, -13.069345,   0.210079,  -0.683778,  -0.870991, -78.000000, -744.000000, -373.500000,  -1.081675,  70.337032,  18.959430,   0.805340,   0.569344,   0.087245,   0.139986, 
30796,   0.191607,   9.255717,   3.404992, -38.566460, -33.246158, -13.379092,   0.208599,  -0.669294,  -0.878009, -79.500000, -739.500000, -376.500000,  -1.068911,  69.952104,  18.599724,   0.807689,   0.566886,   0.085085,   0.137680, 
30797,   0.121723,   9.198478,   3.618794, -37.857484, -33.089852, -13.614121,   0.203316,  -0.667754,  -0.890974, -82.500000, -739.500000, -381.000000,  -1.055623,  69.562216,  18.240760,   0.810057,   0.564386,   0.082943,   0.135367, 
30798,   0.125116,   9.299077,   3.677314, -36.424392, -32.817752, -13.688265,   0.192066,  -0.667930,  -0.898753, -88.500000, -739.500000, -384.000000,  -1.033353,  69.180680,  17.882638,   0.812365,   0.561913,   0.080893,   0.132995, 
30799,   0.153619,   9.219968,   3.750652, -34.931592, -32.492520, -13.780147,   0.199296,  -0.649285,  -0.897091, -85.500000, -733.500000, -384.000000,  -1.021819,  68.811472,  17.527838,   0.814592,   0.559529,   0.078815,   0.130678, 
30800,   0.167978,   9.072432,   3.718921, -33.915492, -32.326416, -13.891711,   0.203269,  -0.635527,  -0.895682, -84.000000, -729.000000, -384.000000,  -1.007191,  68.459224,  17.174438,   0.816715,   0.557243,   0.076799,   0.128330, 
30801,   0.209202,   8.909945,   3.829938, -33.915528, -32.265090, -14.078220,   0.197628,  -0.638422,  -0.909225, -87.000000, -730.500000, -388.500000,  -1.002654,  68.107664,  16.821190,   0.818823,   0.554968,   0.074727,   0.126020, 
30802,   0.295392,   8.952530,   3.798478, -34.290448, -32.510086, -14.417415,   0.199012,  -0.629100,  -0.935872, -87.000000, -729.000000, -397.500000,  -0.999737,  67.759104,  16.465725,   0.820892,   0.552696,   0.072650,   0.123686, 
30803,   0.121542,   9.018979,   3.858867, -34.889116, -32.729546, -14.889166,   0.199884,  -0.622221,  -0.948907, -87.000000, -727.500000, -402.000000,  -0.992638,  67.406328,  16.107054,   0.822982,   0.550385,   0.070598,   0.121301, 
30804,   0.115401,   8.946769,   3.898903, -35.330012, -32.772056, -15.091076,   0.194634,  -0.615067,  -0.942567, -90.000000, -724.500000, -400.500000,  -0.984949,  67.049468,  15.746168,   0.825072,   0.548028,   0.068549,   0.118885, 
30805,   0.228047,   8.939210,   3.940459, -35.248804, -32.722542, -15.423883,   0.190597,  -0.599406,  -0.958336, -93.000000, -720.000000, -406.500000,  -0.979468,  66.693564,  15.383718,   0.827151,   0.545673,   0.066494,   0.116456, 
30806,   0.188975,   8.976670,   4.042160, -35.069024, -32.711978, -15.597707,   0.191486,  -0.589720,  -0.961719, -93.000000, -717.000000, -408.000000,  -0.966493,  66.336716,  15.020377,   0.829217,   0.543287,   0.064502,   0.113972, 
30807,   0.261703,   8.981313,   4.105394, -34.381052, -32.735070, -15.745258,   0.178755,  -0.575414,  -0.976516, -100.500000, -712.500000, -414.000000,  -0.962976,  65.986612,  14.656305,   0.831237,   0.540951,   0.062461,   0.111512, 
30808,   0.199980,   8.993619,   4.225336, -33.271938, -32.449306, -15.998719,   0.193570,  -0.574333,  -0.996863, -93.000000, -714.000000, -420.000000,  -0.955452,  65.641388,  14.292501,   0.833215,   0.538631,   0.060470,   0.109020, 
30809,   0.097344,   8.953947,   4.244610, -31.809274, -32.387332, -16.172003,   0.208060,  -0.572076,  -0.998484, -85.500000, -714.000000, -420.000000,  -0.943106,  65.308572,  13.930033,   0.835126,   0.536386,   0.058547,   0.106496, 
30810,   0.126100,   8.824768,   4.231490, -31.413614, -32.122132, -16.127155,   0.194475,  -0.561841,  -0.990594, -93.000000, -709.500000, -418.500000,  -0.928061,  64.987932,  13.568086,   0.836962,   0.534213,   0.056671,   0.103946, 
30811,   0.128349,   8.781914,   4.214625, -31.324794, -32.051198, -16.326050,   0.200442,  -0.560124,  -0.995779, -90.000000, -709.500000, -420.000000,  -0.912207,  64.672156,  13.207394,   0.838773,   0.532073,   0.054827,   0.101390, 
30812,   0.162115,   8.753898,   4.271514, -31.899776, -32.041810, -16.488871,   0.198945,  -0.548446,  -1.012450, -91.500000, -706.500000, -426.000000,  -0.901190,  64.358108,  12.846009,   0.840547,   0.529931,   0.052958,   0.098838, 
30813,   0.153198,   8.792291,   4.300391, -32.241242, -31.863912, -16.646124,   0.188566,  -0.541744,  -1.033264, -97.500000, -705.000000, -433.500000,  -0.894569,  64.040704,  12.484780,   0.842319,   0.527756,   0.051069,   0.096299, 
30814,   0.181022,   8.750168,   4.328898, -32.600036, -31.722180, -16.926052,   0.185122,  -0.550252,  -1.038633, -99.000000, -708.000000, -435.000000,  -0.890929,  63.722620,  12.123879,   0.844077,   0.525567,   0.049173,   0.093765, 
30815,   0.132342,   8.682834,   4.417604, -33.019828, -31.650906, -17.094766,   0.190342,  -0.522373,  -1.040029, -97.500000, -699.000000, -436.500000,  -0.883017,  63.395128,  11.762933,   0.845880,   0.523304,   0.047316,   0.091206, 
30816,  -0.136669,   8.621531,   4.602640, -33.205932, -31.356640, -17.039370,   0.192290,  -0.502188,  -1.051332, -97.500000, -693.000000, -441.000000,  -0.845613,  63.052540,  11.403127,   0.847747,   0.520894,   0.045685,   0.088517, 
30817,   0.078045,   8.655188,   4.467344, -33.482792, -30.688606, -16.995738,   0.198069,  -0.504092,  -1.061632, -94.500000, -694.500000, -444.000000,  -0.825287,  62.724260,  11.048163,   0.849507,   0.518583,   0.043975,   0.085924, 
30818,  -0.004322,   8.676970,   4.690418, -33.271634, -30.163886, -16.923170,   0.192648,  -0.497752,  -1.050754, -97.500000, -691.500000, -441.000000,  -0.799236,  62.383780,  10.698679,   0.851308,   0.516166,   0.042339,   0.083340, 
30819,   0.067748,   8.586865,   4.685582, -32.775798, -29.487980, -16.731642,   0.176881,  -0.479099,  -1.041385, -106.500000, -684.000000, -439.500000,  -0.778534,  62.046000,  10.355485,   0.853090,   0.513770,   0.040709,   0.080818, 
30820,   0.022013,   8.568102,   4.706474, -33.105480, -28.953320, -16.699665,   0.177240,  -0.474663,  -1.040807, -106.500000, -682.500000, -439.500000,  -0.756364,  61.713708,  10.017941,   0.854829,   0.511402,   0.039134,   0.078320, 
30821,  -0.016556,   8.504230,   4.817094, -33.546108, -28.347152, -16.650236,   0.180838,  -0.468147,  -1.049629, -105.000000, -681.000000, -442.500000,  -0.731568,  61.371700,   9.685812,   0.856578,   0.508939,   0.037610,   0.075844, 
30822,   0.027347,   8.527116,   4.808584, -33.779964, -27.642748, -16.431427,   0.188581,  -0.447058,  -1.061580, -102.000000, -675.000000, -447.000000,  -0.704045,  61.030860,   9.359977,   0.858303,   0.506472,   0.036151,   0.073393, 
30823,  -0.013595,   8.414914,   4.856597, -34.237320, -26.973778, -16.285332,   0.192693,  -0.438099,  -1.084014, -100.500000, -673.500000, -454.500000,  -0.676775,  60.683120,   9.040811,   0.860054,   0.503951,   0.034729,   0.070988, 
30824,   0.004544,   8.427627,   4.971823, -34.291564, -26.331742, -16.004732,   0.193360,  -0.437647,  -1.111816, -100.500000, -675.000000, -463.500000,  -0.652539,  60.330184,   8.728428,   0.861810,   0.501383,   0.033327,   0.068640, 
30825,   0.023517,   8.429233,   5.020359, -34.233096, -25.610774, -15.895548,   0.188281,  -0.429679,  -1.110013, -103.500000, -672.000000, -463.500000,  -0.630125,  59.977336,   8.422661,   0.863539,   0.498803,   0.031953,   0.066341, 
30826,  -0.037093,   8.367865,   5.103669, -33.988104, -25.148712, -15.884638,   0.180338,  -0.416550,  -1.088581, -108.000000, -666.000000, -457.500000,  -0.603776,  59.619444,   8.122261,   0.865262,   0.496165,   0.030644,   0.064058, 
30827,   0.015222,   8.383650,   5.081643, -34.061592, -24.747764, -15.791295,   0.182861,  -0.423340,  -1.099135, -106.500000, -669.000000, -460.500000,  -0.584325,  59.272144,   7.826176,   0.866933,   0.493609,   0.029321,   0.061827, 
30828,  -0.080513,   8.368262,   5.302821, -33.834160, -24.330272, -15.807481,   0.180492,  -0.418542,  -1.102771, -108.000000, -667.500000, -462.000000,  -0.561926,  58.915568,   7.533783,   0.868631,   0.490973,   0.028046,   0.059606, 
30829,   0.132720,   8.218761,   5.152637, -33.677208, -24.062982, -15.653054,   0.184807,  -0.403155,  -1.110438, -106.500000, -663.000000, -465.000000,  -0.549822,  58.566632,   7.244791,   0.870271,   0.488388,   0.026725,   0.057445, 
30830,  -0.026413,   8.137053,   5.266476, -34.430184, -23.812898, -15.796151,   0.197271,  -0.394470,  -1.124769, -100.500000, -661.500000, -469.500000,  -0.529867,  58.214804,   6.957345,   0.871919,   0.485772,   0.025482,   0.055256, 
30831,   0.066889,   8.134494,   5.169203, -35.798188, -23.195570, -15.721930,   0.189123,  -0.387768,  -1.118104, -105.000000, -658.500000, -468.000000,  -0.516386,  57.858392,   6.673591,   0.873562,   0.483113,   0.024216,   0.053115, 
30832,   0.035562,   8.068001,   5.402039, -36.850924, -22.846382, -15.753430,   0.179665,  -0.365767,  -1.122996, -111.000000, -651.000000, -471.000000,  -0.499909,  57.480456,   6.394072,   0.875280,   0.480278,   0.022995,   0.050991, 
30833,  -0.049078,   8.133399,   5.374305, -37.524584, -22.346090, -15.638824,   0.175271,  -0.354541,  -1.139343, -114.000000, -648.000000, -477.000000,  -0.470520,  57.098692,   6.118105,   0.876996,   0.477398,   0.021901,   0.048832, 
30834,  -0.011036,   8.008445,   5.435290, -38.344068, -21.818432, -15.455712,   0.175083,  -0.358163,  -1.144457, -114.000000, -649.500000, -478.500000,  -0.457517,  56.706076,   5.847076,   0.878751,   0.474439,   0.020711,   0.046776, 
30835,  -0.047816,   8.022060,   5.502304, -39.308920, -21.246492, -15.377858,   0.175271,  -0.354541,  -1.139343, -114.000000, -648.000000, -477.000000,  -0.430851,  56.305144,   5.581442,   0.880537,   0.471409,   0.019660,   0.044698, 
30836,  -0.038071,   7.995888,   5.572589, -40.050624, -20.674706, -15.227917,   0.176500,  -0.343227,  -1.151800, -114.000000, -645.000000, -481.500000,  -0.413021,  55.895220,   5.321627,   0.882302,   0.468283,   0.018575,   0.042694, 
30837,   0.007845,   8.001502,   5.631361, -40.379576, -20.023108, -14.941471,   0.178072,  -0.330284,  -1.173333, -114.000000, -642.000000, -489.000000,  -0.391796,  55.484464,   5.067139,   0.884064,   0.465146,   0.017552,   0.040711, 
30838,  -0.053144,   7.986222,   5.718830, -40.074224, -19.516124, -14.815961,   0.173865,  -0.315436,  -1.184565, -117.000000, -637.500000, -493.500000,  -0.365314,  55.072624,   4.819220,   0.885829,   0.461998,   0.016612,   0.038751, 
30839,  -0.103529,   7.929922,   5.738416, -40.437032, -18.808934, -14.496989,   0.174957,  -0.299323,  -1.173180, -117.000000, -631.500000, -490.500000,  -0.335024,  54.657324,   4.577709,   0.887589,   0.458812,   0.015739,   0.036819, 
30840,   0.057911,   7.936993,   5.891953, -40.182988, -18.277018, -14.351295,   0.174786,  -0.300138,  -1.168642, -117.000000, -631.500000, -489.000000,  -0.323381,  54.244180,   4.342406,   0.889312,   0.455636,   0.014761,   0.035003, 
30841,   0.011998,   7.934965,   5.881970, -39.327064, -17.647034, -14.085056,   0.170578,  -0.285291,  -1.179874, -120.000000, -627.000000, -493.500000,  -0.297679,  53.834856,   4.112655,   0.891011,   0.452481,   0.013928,   0.033168, 
30842,  -0.000126,   7.759278,   5.934481, -39.203096, -17.236212, -13.904266,   0.165670,  -0.276508,  -1.182609, -123.000000, -624.000000, -495.000000,  -0.288505,  53.428036,   3.889261,   0.892682,   0.449341,   0.013006,   0.031441, 
30843,   0.106781,   7.694065,   5.849989, -39.680184, -17.044328, -13.900313,   0.166354,  -0.273250,  -1.200759, -123.000000, -624.000000, -501.000000,  -0.277248,  53.029336,   3.667637,   0.894284,   0.446246,   0.012121,   0.029712, 
30844,  -0.110257,   7.664006,   5.927103, -40.735264, -16.780380, -14.174137,   0.171900,  -0.246549,  -1.220883, -121.500000, -616.500000, -508.500000,  -0.257809,  52.623584,   3.447419,   0.895914,   0.443093,   0.011316,   0.027958, 
30845,  -0.031650,   7.510234,   5.859846, -42.384588, -16.524908, -14.052388,   0.178226,  -0.240396,  -1.225491, -118.500000, -615.000000, -510.000000,  -0.240339,  52.205616,   3.228301,   0.897590,   0.439845,   0.010510,   0.026216, 
30846,   0.003612,   7.518831,   5.891854, -44.447444, -16.130529, -14.012021,   0.183850,  -0.240307,  -1.221601, -115.500000, -615.000000, -508.500000,  -0.222286,  51.773984,   3.011912,   0.899295,   0.436478,   0.009729,   0.024489, 
30847,  -0.028633,   7.537699,   6.055036, -46.071272, -15.709071, -13.892844,   0.169890,  -0.237315,  -1.223941, -123.000000, -613.500000, -510.000000,  -0.198055,  51.317488,   2.799556,   0.901074,   0.432905,   0.009020,   0.022766, 
30848,  -0.003457,   7.390786,   6.123647, -47.171780, -15.465627, -13.943191,   0.158127,  -0.239935,  -1.218108, -129.000000, -613.500000, -508.500000,  -0.189418,  50.843092,   2.590695,   0.902900,   0.429185,   0.008211,   0.021126, 
30849,   0.095548,   7.347634,   6.303439, -48.112600, -15.294024, -14.054941,   0.170778,  -0.227629,  -1.227324, -123.000000, -610.500000, -511.500000,  -0.183335,  50.354124,   2.381650,   0.904753,   0.425339,   0.007393,   0.019487, 
30850,   0.131523,   7.331161,   6.432089, -48.793680, -15.456054, -14.543984,   0.179425,  -0.194049,  -1.233004, -120.000000, -600.000000, -514.500000,  -0.187601,  49.855972,   2.170670,   0.906619,   0.421411,   0.006498,   0.017865, 
30851,   0.233313,   7.311647,   6.429818, -49.084568, -15.699395, -14.908333,   0.174689,  -0.184452,  -1.240276, -123.000000, -597.000000, -517.500000,  -0.193136,  49.353452,   1.955985,   0.908502,   0.417448,   0.005594,   0.016212, 
30852,  -0.001426,   7.287851,   6.496577, -49.157444, -15.922322, -15.435271,   0.169234,  -0.183726,  -1.248703, -126.000000, -597.000000, -520.500000,  -0.183786,  48.848748,   1.736418,   0.910358,   0.413450,   0.004804,   0.014459, 
30853,  -0.017797,   7.185808,   6.571598, -49.766628, -16.121313, -15.774298,   0.174625,  -0.155033,  -1.254637, -124.500000, -588.000000, -523.500000,  -0.183561,  48.339096,   1.512685,   0.912219,   0.409408,   0.003943,   0.012698, 
30854,   0.040965,   7.082500,   6.564032, -50.560748, -16.439680, -16.347624,   0.176947,  -0.127605,  -1.255710, -124.500000, -579.000000, -525.000000,  -0.182119,  47.826768,   1.283457,   0.914079,   0.405339,   0.003087,   0.010882, 
30855,   0.120525,   7.015952,   6.655924, -51.465036, -16.708431, -16.932886,   0.165526,  -0.128597,  -1.258951, -130.500000, -579.000000, -526.500000,  -0.188960,  47.301012,   1.048445,   0.915926,   0.401136,   0.002159,   0.009041, 
30856,   0.120480,   6.978400,   6.758717, -52.359952, -17.109200, -17.623862,   0.168595,  -0.127330,  -1.263813, -129.000000, -579.000000, -528.000000,  -0.195799,  46.766412,   0.805864,   0.917803,   0.396862,   0.001222,   0.007132, 
30857,   0.167952,   6.858901,   6.831908, -53.057668, -17.439112, -18.286260,   0.177493,  -0.119548,  -1.250017, -124.500000, -576.000000, -523.500000,  -0.206294,  46.218616,   0.556269,   0.919708,   0.392475,   0.000249,   0.005171, 
30858,   0.162451,   6.858034,   6.885833, -53.757116, -17.967378, -19.081784,   0.179082,  -0.103798,  -1.261897, -124.500000, -571.500000, -528.000000,  -0.214564,  45.673572,   0.298192,   0.921569,   0.388093,  -0.000715,   0.003124, 
30859,   0.095858,   6.829538,   6.959877, -54.313708, -18.091350, -19.611326,   0.182338,  -0.098911,  -1.261644, -123.000000, -570.000000, -528.000000,  -0.213542,  45.119028,   0.033404,   0.923463,   0.383636,  -0.001609,   0.000984, 
30860,   0.161575,   6.722973,   7.063375, -54.557208, -18.300106, -20.149560,   0.178677,  -0.076008,  -1.267183, -126.000000, -562.500000, -531.000000,  -0.218640,  44.562000,  -0.237188,   0.925299,   0.379130,  -0.002550,  -0.001191, 
30861,   0.110062,   6.713645,   7.107313, -54.758784, -18.539336, -20.830998,   0.178084,  -0.051838,  -1.277584, -127.500000, -555.000000, -535.500000,  -0.217148,  44.005292,  -0.513068,   0.927119,   0.374621,  -0.003434,  -0.003441, 
30862,   0.130704,   6.726842,   7.275016, -54.250920, -18.805368, -21.408388,   0.172134,  -0.050749,  -1.262746, -130.500000, -553.500000, -531.000000,  -0.222535,  43.446104,  -0.795339,   0.928931,   0.370085,  -0.004372,  -0.005728, 
30863,   0.126083,   6.628535,   7.362849, -53.402872, -19.030982, -22.047074,   0.169548,  -0.014540,  -1.266553, -133.500000, -541.500000, -534.000000,  -0.231837,  42.893092,  -1.083322,   0.930682,   0.365582,  -0.005339,  -0.008058, 
30864,   0.119269,   6.535314,   7.333817, -52.982536, -19.313850, -22.865546,   0.170778,  -0.003225,  -1.279011, -133.500000, -538.500000, -538.500000,  -0.241092,  42.350300,  -1.379280,   0.932401,   0.361162,  -0.006309,  -0.010463, 
30865,   0.190888,   6.504237,   7.365019, -52.641396, -19.655736, -23.468362,   0.184471,   0.016774,  -1.305799, -127.500000, -534.000000, -547.500000,  -0.255613,  41.812996,  -1.682310,   0.934037,   0.356760,  -0.007321,  -0.012917, 
30866,   0.103343,   6.455377,   7.455218, -52.297636, -19.767380, -24.275936,   0.177228,   0.035968,  -1.292865, -132.000000, -526.500000, -544.500000,  -0.255746,  41.280684,  -1.992166,   0.935637,   0.352393,  -0.008215,  -0.015480, 
30867,   0.124835,   6.346507,   7.482452, -51.962928, -19.840898, -24.586858,   0.175593,   0.052444,  -1.285693, -133.500000, -520.500000, -543.000000,  -0.254441,  40.753420,  -2.306804,   0.937218,   0.348067,  -0.009089,  -0.018095, 
30868,  -0.000514,   6.370894,   7.670387, -51.309032, -19.800454, -25.083710,   0.171369,   0.064484,  -1.306578, -136.500000, -517.500000, -550.500000,  -0.245881,  40.228624,  -2.625428,   0.938741,   0.343744,  -0.009892,  -0.020773, 
30869,   0.143145,   6.275308,   7.596441, -50.466304, -19.732726, -25.377824,   0.162708,   0.068742,  -1.286301, -141.000000, -514.500000, -544.500000,  -0.247151,  39.722500,  -2.946283,   0.940194,   0.339567,  -0.010761,  -0.023445, 
30870,   0.036268,   6.239432,   7.737260, -49.976316, -19.753786, -25.799246,   0.162024,   0.065485,  -1.268151, -141.000000, -514.500000, -538.500000,  -0.241962,  39.215708,  -3.270113,   0.941613,   0.335374,  -0.011562,  -0.026169, 
30871,   0.098604,   6.246595,   7.880549, -48.480556, -19.633788, -26.015614,   0.163254,   0.076799,  -1.280608, -141.000000, -511.500000, -543.000000,  -0.235983,  38.721592,  -3.596505,   0.942959,   0.331274,  -0.012344,  -0.028922, 
30872,   0.029799,   6.237232,   7.980357, -46.040424, -19.561148, -26.370372,   0.170638,   0.093452,  -1.293136, -138.000000, -507.000000, -547.500000,  -0.228621,  38.247068,  -3.924051,   0.944248,   0.327337,  -0.013099,  -0.031693, 
30873,  -0.018447,   6.157109,   7.955157, -43.754012, -19.353254, -26.437222,   0.175313,   0.113274,  -1.300225, -136.500000, -501.000000, -550.500000,  -0.209912,  37.797060,  -4.252366,   0.945444,   0.323599,  -0.013747,  -0.034506, 
30874,  -0.115279,   6.107234,   7.975056, -41.810808, -19.117948, -26.516072,   0.162631,   0.136001,  -1.286065, -144.000000, -492.000000, -547.500000,  -0.187172,  37.373152,  -4.579696,   0.946509,   0.320059,  -0.014346,  -0.037324, 
30875,  -0.030182,   6.047080,   8.041748, -39.875724, -18.792374, -26.341020,   0.158661,   0.162889,  -1.263225, -147.000000, -481.500000, -541.500000,  -0.168258,  36.966372,  -4.905287,   0.947526,   0.316662,  -0.014957,  -0.040119, 
30876,  -0.106480,   5.949764,   8.106621, -37.562576, -18.459238, -26.257400,   0.154641,   0.181357,  -1.269342, -150.000000, -475.500000, -544.500000,  -0.142540,  36.583024,  -5.228006,   0.948479,   0.313463,  -0.015493,  -0.042911, 
30877,  -0.066469,   5.945080,   7.996556, -35.883140, -17.891646, -25.837182,   0.151693,   0.172486,  -1.297975, -151.500000, -480.000000, -553.500000,  -0.123525,  36.223044,  -5.545603,   0.949333,   0.310446,  -0.016061,  -0.045643, 
30878,  -0.005332,   5.892103,   8.068975, -34.317256, -17.537888, -25.535152,   0.160917,   0.179090,  -1.302907, -147.000000, -478.500000, -555.000000,  -0.106243,  35.878304,  -5.858260,   0.950122,   0.307548,  -0.016619,  -0.048329, 
30879,  -0.165530,   5.859063,   8.072481, -32.834892, -16.888680, -24.898084,   0.165591,   0.198913,  -1.309996, -145.500000, -472.500000, -558.000000,  -0.057035,  35.555040,  -6.164546,   0.950845,   0.304843,  -0.016889,  -0.051048, 
30880,  -0.020530,   5.753254,   8.091194, -31.397460, -16.480724, -24.492068,   0.159795,   0.198010,  -1.309348, -148.500000, -472.500000, -558.000000,  -0.047506,  35.238392,  -6.462569,   0.951557,   0.302178,  -0.017455,  -0.053595, 
30881,   0.067209,   5.639284,   8.174983, -30.108094, -16.331850, -24.370784,   0.153486,   0.194663,  -1.295088, -151.500000, -472.500000, -553.500000,  -0.043646,  34.930960,  -6.757044,   0.952223,   0.299580,  -0.018049,  -0.056099, 
30882,  -0.051631,   5.648532,   8.227218, -28.808692, -16.059109, -24.377734,   0.150792,   0.200639,  -1.279996, -153.000000, -469.500000, -549.000000,  -0.029762,  34.639756,  -7.050578,   0.952836,   0.297121,  -0.018552,  -0.058622, 
30883,  -0.051429,   5.662768,   8.197722, -27.414270, -15.687483, -24.138196,   0.144436,   0.229519,  -1.270444, -157.500000, -459.000000, -547.500000,  -0.015264,  34.362964,  -7.339814,   0.953386,   0.294775,  -0.019034,  -0.061110, 
30884,  -0.120366,   5.524809,   8.175868, -26.372966, -15.403500, -23.799672,   0.137502,   0.244729,  -1.285890, -162.000000, -454.500000, -553.500000,   0.006336,  34.100112,  -7.625742,   0.953900,   0.292551,  -0.019444,  -0.063589, 
30885,  -0.022711,   5.343463,   8.242571, -25.880396, -15.020025, -23.387094,   0.143453,   0.243640,  -1.300728, -159.000000, -456.000000, -558.000000,   0.018576,  33.834500,  -7.907122,   0.954424,   0.290301,  -0.019907,  -0.066009, 
30886,  -0.099733,   5.419035,   8.129327, -25.473048, -14.601698, -23.157600,   0.150136,   0.254228,  -1.304758, -156.000000, -453.000000, -559.500000,   0.039272,  33.586700,  -8.183387,   0.954885,   0.288201,  -0.020287,  -0.068407, 
30887,  -0.027390,   5.445793,   8.200114, -25.410740, -14.315293, -22.786304,   0.133466,   0.260390,  -1.301659, -165.000000, -450.000000, -559.500000,   0.057670,  33.331272,  -8.455239,   0.955358,   0.286035,  -0.020660,  -0.070764, 
30888,  -0.040893,   5.405027,   8.224772, -24.979804, -14.146963, -22.726346,   0.134370,   0.272882,  -1.295389, -165.000000, -445.500000, -558.000000,   0.067457,  33.078934,  -8.724195,   0.955801,   0.283884,  -0.021088,  -0.073076, 
30889,  -0.170754,   5.394174,   8.306420, -24.368316, -13.979747, -22.803670,   0.143422,   0.278672,  -1.295784, -160.500000, -444.000000, -558.000000,   0.078968,  32.832814,  -8.991831,   0.956228,   0.281787,  -0.021493,  -0.075383, 
30890,  -0.091630,   5.375582,   8.280439, -23.756504, -13.740211, -22.653428,   0.137968,   0.279398,  -1.304211, -163.500000, -444.000000, -561.000000,   0.089332,  32.595630,  -9.257858,   0.956635,   0.279765,  -0.021900,  -0.077674, 
30891,  -0.120913,   5.235736,   8.233503, -23.351400, -13.544115, -22.393096,   0.135755,   0.282205,  -1.322037, -165.000000, -444.000000, -567.000000,   0.099679,  32.354778,  -9.520895,   0.957052,   0.277714,  -0.022289,  -0.079943, 
30892,  -0.164458,   5.188246,   8.267770, -23.598944, -13.240413, -22.064548,   0.132327,   0.276503,  -1.317753, -166.500000, -445.500000, -565.500000,   0.119963,  32.121704,  -9.780826,   0.957426,   0.275731,  -0.022582,  -0.082209, 
30893,  -0.210037,   5.189334,   8.276480, -23.818702, -12.953423, -21.900382,   0.129103,   0.277229,  -1.298701, -168.000000, -444.000000, -559.500000,   0.139028,  31.884654, -10.036722,   0.957792,   0.273709,  -0.022863,  -0.084439, 
30894,  -0.146688,   5.095034,   8.357542, -24.013872, -12.676008, -21.664558,   0.131254,   0.303842,  -1.295236, -168.000000, -435.000000, -559.500000,   0.156785,  31.643194, -10.289359,   0.958164,   0.271650,  -0.023136,  -0.086641, 
30895,  -0.165582,   5.144723,   8.336388, -24.190774, -12.264505, -21.291738,   0.138313,   0.321673,  -1.289037, -165.000000, -429.000000, -558.000000,   0.170806,  31.410690, -10.537604,   0.958519,   0.269666,  -0.023427,  -0.088797, 
30896,  -0.048188,   5.116328,   8.272784, -24.358904, -11.944359, -20.997806,   0.135228,   0.317600,  -1.293828, -166.500000, -430.500000, -559.500000,   0.190103,  31.170338, -10.780821,   0.958894,   0.267622,  -0.023647,  -0.090927, 
30897,  -0.204214,   5.018324,   8.387357, -24.865118, -11.789577, -20.916504,   0.127422,   0.325931,  -1.296238, -171.000000, -427.500000, -561.000000,   0.201315,  30.918846, -11.021171,   0.959299,   0.265480,  -0.023911,  -0.093019, 
30898,  -0.116463,   4.961498,   8.353480, -25.385714, -11.521399, -20.699898,   0.128326,   0.338423,  -1.289968, -171.000000, -423.000000, -559.500000,   0.215553,  30.668484, -11.260001,   0.959675,   0.263345,  -0.024137,  -0.095104, 
30899,  -0.286622,   4.978432,   8.409733, -25.702622, -11.323445, -20.595442,   0.120145,   0.339512,  -1.302609, -175.500000, -423.000000, -564.000000,   0.238551,  30.413634, -11.495878,   0.960039,   0.261175,  -0.024270,  -0.097184, 
30900,  -0.251983,   4.950200,   8.510365, -25.572324, -10.979893, -20.034778,   0.119194,   0.359246,  -1.313587, -177.000000, -417.000000, -568.500000,   0.268776,  30.162154, -11.727535,   0.960396,   0.259042,  -0.024327,  -0.099246, 
30901,  -0.150168,   4.964240,   8.435527, -25.619820, -10.625637, -19.781458,   0.116655,   0.363230,  -1.312686, -178.500000, -415.500000, -568.500000,   0.284226,  29.911084, -11.953687,   0.960761,   0.256903,  -0.024487,  -0.101231, 
30902,  -0.157936,   4.777054,   8.483145, -25.536858, -10.408516, -19.614234,   0.119928,   0.370924,  -1.302780, -177.000000, -412.500000, -565.500000,   0.306360,  29.648468, -12.177058,   0.961152,   0.254675,  -0.024566,  -0.103210, 
30903,  -0.127253,   4.709311,   8.512836, -25.942290, -10.150922, -19.289214,   0.120816,   0.380609,  -1.306162, -177.000000, -409.500000, -567.000000,   0.316082,  29.389028, -12.396752,   0.961527,   0.252461,  -0.024735,  -0.105131, 
30904,  -0.120434,   4.800351,   8.583637, -26.090622,  -9.986027, -19.195086,   0.118105,   0.383779,  -1.300723, -178.500000, -408.000000, -565.500000,   0.328574,  29.132486, -12.614103,   0.961886,   0.250273,  -0.024869,  -0.107038, 
30905,  -0.060505,   4.724467,   8.479114, -26.059220,  -9.729960, -18.778250,   0.115599,   0.393376,  -1.280517, -180.000000, -403.500000, -559.500000,   0.336976,  28.874156, -12.827690,   0.962235,   0.248063,  -0.025019,  -0.108905, 
30906,  -0.105053,   4.678438,   8.576849, -26.490474,  -9.412925, -18.632320,   0.111454,   0.378803,  -1.277388, -181.500000, -408.000000, -558.000000,   0.352394,  28.609660, -13.038295,   0.962594,   0.245808,  -0.025090,  -0.110764, 
30907,  -0.016223,   4.564548,   8.579073, -26.647066,  -9.192995, -18.409660,   0.107263,   0.396457,  -1.278967, -184.500000, -402.000000, -559.500000,   0.355301,  28.344028, -13.245877,   0.962961,   0.243535,  -0.025250,  -0.112573, 
30908,  -0.050379,   4.585888,   8.512143, -27.373306,  -9.141876, -18.598550,   0.100704,   0.418909,  -1.284183, -189.000000, -394.500000, -562.500000,   0.355463,  28.077812, -13.452464,   0.963327,   0.241253,  -0.025422,  -0.114369, 
30909,  -0.023735,   4.530833,   8.612633, -28.140668,  -9.209647, -18.861558,   0.103944,   0.420989,  -1.293582, -187.500000, -394.500000, -565.500000,   0.350421,  27.797696, -13.660927,   0.963698,   0.238845,  -0.025619,  -0.116173, 
30910,  -0.035627,   4.508487,   8.579873, -28.876934,  -9.228279, -19.165902,   0.097806,   0.418457,  -1.283859, -190.500000, -394.500000, -562.500000,   0.345741,  27.514748, -13.871572,   0.964072,   0.236413,  -0.025806,  -0.117999, 
30911,   0.091561,   4.343041,   8.611593, -29.488962,  -9.316208, -19.435296,   0.097293,   0.416014,  -1.270246, -190.500000, -394.500000, -558.000000,   0.342264,  27.215954, -14.085926,   0.964472,   0.233849,  -0.025966,  -0.119864, 
30912,  -0.000417,   4.282838,   8.667065, -30.242458,  -9.235719, -19.691648,   0.110490,   0.436376,  -1.273770, -184.500000, -388.500000, -559.500000,   0.340585,  26.915602, -14.302447,   0.964853,   0.231269,  -0.026103,  -0.121751, 
30913,   0.066223,   4.347790,   8.655671, -31.075664,  -9.208498, -19.964332,   0.108309,   0.444796,  -1.272291, -186.000000, -385.500000, -559.500000,   0.339470,  26.613784, -14.521218,   0.965223,   0.228676,  -0.026228,  -0.123660, 
30914,   0.015063,   4.317382,   8.700253, -31.774882,  -9.156343, -20.325996,   0.102700,   0.447513,  -1.266528, -189.000000, -384.000000, -558.000000,   0.336668,  26.296750, -14.742357,   0.965600,   0.225948,  -0.026345,  -0.125589, 
30915,   0.053884,   4.187388,   8.820716, -32.165756,  -9.280807, -20.682568,   0.104305,   0.466070,  -1.268755, -189.000000, -378.000000, -559.500000,   0.323528,  25.975886, -14.966166,   0.965984,   0.223178,  -0.026540,  -0.127524, 
30916,   0.076134,   4.283510,   8.703833, -32.805214,  -9.276584, -21.113080,   0.106081,   0.485441,  -1.275520, -189.000000, -372.000000, -562.500000,   0.315026,  25.653562, -15.195307,   0.966363,   0.220400,  -0.026694,  -0.129515, 
30917,   0.127400,   4.063518,   8.856588, -33.334202,  -9.532950, -21.813894,   0.104959,   0.504361,  -1.281961, -190.500000, -366.000000, -565.500000,   0.290165,  25.315218, -15.429023,   0.966774,   0.217468,  -0.026965,  -0.131522, 
30918,   0.023378,   4.135394,   8.883010, -33.617984,  -9.732724, -22.743084,   0.104755,   0.497933,  -1.296729, -190.500000, -369.000000, -570.000000,   0.276620,  24.981444, -15.672163,   0.967106,   0.214575,  -0.027151,  -0.133624, 
30919,   0.095621,   4.060691,   8.856940, -33.696456, -10.022191, -23.723818,   0.106765,   0.488699,  -1.293670, -189.000000, -372.000000, -568.500000,   0.254518,  24.640566, -15.924117,   0.967439,   0.211609,  -0.027405,  -0.135790, 
30920,   0.110273,   3.947871,   8.799136, -34.281480, -10.264977, -24.500436,   0.104976,   0.507167,  -1.272309, -190.500000, -364.500000, -562.500000,   0.233824,  24.296778, -16.185863,   0.967764,   0.208619,  -0.027649,  -0.138045, 
30921,   0.105933,   3.879174,   8.888171, -35.183688, -10.499523, -25.550196,   0.090348,   0.509708,  -1.246846, -198.000000, -361.500000, -555.000000,   0.213812,  23.942086, -16.456402,   0.968098,   0.205537,  -0.027877,  -0.140382, 
30922,   0.000568,   3.876445,   8.996565, -35.390328, -10.699032, -26.391496,   0.082542,   0.518039,  -1.249257, -202.500000, -358.500000, -556.500000,   0.206252,  23.585138, -16.736614,   0.968388,   0.202443,  -0.027999,  -0.142823, 
30923,   0.064561,   3.807397,   8.808143, -36.377896, -10.824948, -27.109550,   0.086670,   0.529805,  -1.262038, -201.000000, -355.500000, -561.000000,   0.196703,  23.223880, -17.024940,   0.968655,   0.199306,  -0.028130,  -0.145331, 
30924,   0.016089,   3.739306,   8.985374, -37.545568, -10.942008, -27.916460,   0.090285,   0.539128,  -1.261207, -199.500000, -352.500000, -561.000000,   0.189073,  22.844418, -17.319768,   0.968931,   0.196015,  -0.028218,  -0.147903, 
30925,   0.003614,   3.822542,   9.058518, -37.630824, -11.035384, -28.824168,   0.090301,   0.541934,  -1.251555, -199.500000, -351.000000, -558.000000,   0.187968,  22.474094, -17.624072,   0.969173,   0.192809,  -0.028261,  -0.150568, 
30926,  -0.043725,   3.797126,   9.164378, -36.746888, -11.200735, -29.452680,   0.088462,   0.551983,  -1.259151, -201.000000, -348.000000, -561.000000,   0.190955,  22.100192, -17.935122,   0.969375,   0.189571,  -0.028259,  -0.153294, 
30927,  -0.141421,   3.692897,   9.180694, -35.620228, -11.107840, -29.917280,   0.087511,   0.571716,  -1.270129, -202.500000, -342.000000, -565.500000,   0.197507,  21.745514, -18.251668,   0.969536,   0.186503,  -0.028245,  -0.156072, 
30928,  -0.075271,   3.655324,   9.221292, -34.769780, -11.110812, -30.116834,   0.087870,   0.576152,  -1.269552, -202.500000, -340.500000, -565.500000,   0.206443,  21.399412, -18.571514,   0.969648,   0.183507,  -0.028210,  -0.158877, 
30929,  -0.077168,   3.681234,   9.274410, -33.479354, -10.956008, -30.578536,   0.079567,   0.584846,  -1.248697, -207.000000, -336.000000, -559.500000,   0.209626,  21.066602, -18.893804,   0.969730,   0.180617,  -0.028229,  -0.161692, 
30930,   0.025791,   3.561659,   9.160604, -32.851966, -10.959054, -30.893684,   0.073959,   0.587564,  -1.242934, -210.000000, -334.500000, -558.000000,   0.214055,  20.738928, -19.219774,   0.969766,   0.177768,  -0.028235,  -0.164536, 
30931,  -0.090093,   3.514274,   9.154987, -32.687356, -10.826420, -30.976544,   0.082107,   0.580862,  -1.249599, -205.500000, -337.500000, -559.500000,   0.226400,  20.421600, -19.547480,   0.969782,   0.175020,  -0.028175,  -0.167408, 
30932,  -0.264630,   3.518203,   9.328968, -32.014896, -10.561169, -30.990528,   0.077215,   0.592451,  -1.242681, -208.500000, -333.000000, -558.000000,   0.256215,  20.106950, -19.875334,   0.969767,   0.172321,  -0.027956,  -0.170304, 
30933,  -0.043304,   3.594040,   9.376113, -29.900504, -10.260386, -30.361392,   0.070827,   0.615718,  -1.252434, -213.000000, -325.500000, -562.500000,   0.266661,  19.822296, -20.198496,   0.969705,   0.169849,  -0.027924,  -0.173124, 
30934,  -0.142345,   3.477879,   9.138048, -28.335290, -10.042066, -30.453410,   0.083853,   0.635266,  -1.251420, -207.000000, -319.500000, -562.500000,   0.282622,  19.547012, -20.519054,   0.969616,   0.167465,  -0.027841,  -0.175927, 
30935,  -0.135393,   3.487184,   9.203615, -28.393960,  -9.890517, -30.416550,   0.071935,   0.634637,  -1.231396, -213.000000, -318.000000, -556.500000,   0.292626,  19.277976, -20.838596,   0.969507,   0.165127,  -0.027804,  -0.178710, 
30936,  -0.131010,   3.367040,   9.292681, -27.327794,  -9.741320, -30.332532,   0.060360,   0.635638,  -1.220448, -219.000000, -316.500000, -553.500000,   0.303830,  19.014120, -21.157780,   0.969384,   0.162835,  -0.027751,  -0.181491, 
30937,  -0.184516,   3.294405,   9.382528, -26.578966,  -9.546747, -30.216388,   0.052741,   0.647590,  -1.217743, -223.500000, -312.000000, -553.500000,   0.320898,  18.763118, -21.475240,   0.969216,   0.160661,  -0.027654,  -0.184259, 
30938,  -0.178460,   3.285817,   9.220860, -26.208274,  -9.377884, -30.078760,   0.048038,   0.662800,  -1.205710, -226.500000, -306.000000, -550.500000,   0.340664,  18.513792, -21.791110,   0.969048,   0.158508,  -0.027523,  -0.187018, 
30939,  -0.254042,   3.169425,   9.373662, -25.742128,  -9.102301, -29.903374,   0.053834,   0.663703,  -1.206358, -223.500000, -306.000000, -550.500000,   0.364701,  18.264390, -22.104834,   0.968880,   0.156365,  -0.027341,  -0.189766, 
30940,  -0.252207,   3.200684,   9.402024, -25.019514,  -8.933785, -29.674842,   0.044593,   0.654292,  -1.211079, -228.000000, -309.000000, -552.000000,   0.387173,  18.028678, -22.415516,   0.968675,   0.154336,  -0.027179,  -0.192478, 
30941,  -0.108820,   3.165127,   9.461495, -23.472174,  -8.694931, -29.235814,   0.041354,   0.652211,  -1.201680, -229.500000, -309.000000, -549.000000,   0.403960,  17.802612, -22.722258,   0.968442,   0.152379,  -0.027065,  -0.195145, 
30942,  -0.241371,   3.220119,   9.413922, -22.276966,  -8.427580, -28.599990,   0.044764,   0.655106,  -1.215616, -228.000000, -309.000000, -553.500000,   0.434412,  17.598210, -23.023702,   0.968177,   0.150631,  -0.026855,  -0.197778, 
30943,  -0.262320,   3.047197,   9.340466, -21.218174,  -8.052944, -27.920246,   0.050497,   0.685429,  -1.230625, -226.500000, -300.000000, -559.500000,   0.466812,  17.394762, -23.317664,   0.967922,   0.148900,  -0.026612,  -0.200350, 
30944,  -0.285688,   3.116870,   9.421783, -20.495790,  -7.810380, -27.124714,   0.042896,   0.700187,  -1.218268, -231.000000, -294.000000, -556.500000,   0.496216,  17.205386, -23.602868,   0.967665,   0.147287,  -0.026400,  -0.202843, 
30945,  -0.165251,   3.005717,   9.402016, -19.383336,  -7.610963, -26.474566,   0.031287,   0.695575,  -1.226625, -237.000000, -295.500000, -559.500000,   0.518595,  17.022020, -23.881618,   0.967414,   0.145717,  -0.026241,  -0.205270, 
30946,  -0.204917,   3.004456,   9.319620, -19.109292,  -7.257444, -26.220620,   0.031629,   0.697204,  -1.235700, -237.000000, -295.500000, -562.500000,   0.543452,  16.846922, -24.154946,   0.967131,   0.144221,  -0.026061,  -0.207647, 
30947,  -0.120891,   2.813543,   9.263722, -19.539822,  -7.157893, -26.081442,   0.037441,   0.700913,  -1.226695, -234.000000, -294.000000, -559.500000,   0.550360,  16.657238, -24.425076,   0.966859,   0.142569,  -0.025995,  -0.209975, 
30948,  -0.158952,   2.794616,   9.250180, -20.403742,  -7.032126, -26.230874,   0.037645,   0.707341,  -1.211928, -234.000000, -291.000000, -555.000000,   0.559770,  16.461870, -24.695734,   0.966593,   0.140876,  -0.025890,  -0.212313, 
30949,  -0.113494,   2.726781,   9.296769, -21.254934,  -6.965549, -26.352208,   0.029685,   0.717664,  -1.200148, -238.500000, -286.500000, -552.000000,   0.560820,  16.256327, -24.966090,   0.966341,   0.139083,  -0.025829,  -0.214641, 
30950,  -0.093584,   2.874307,   9.470853, -21.286694,  -6.915640, -26.464808,   0.023563,   0.717938,  -1.180773, -241.500000, -285.000000, -546.000000,   0.554654,  16.050791, -25.238570,   0.966088,   0.137279,  -0.025822,  -0.216980, 
30951,  -0.129487,   2.761207,   9.461919, -20.261014,  -6.826185, -26.485764,   0.024997,   0.735680,  -1.178463, -241.500000, -279.000000, -546.000000,   0.564531,  15.853106, -25.511932,   0.965798,   0.135569,  -0.025688,  -0.219340, 
30952,  -0.134444,   2.591481,   9.435536, -20.065830,  -6.767186, -26.457426,   0.034188,   0.736672,  -1.202700, -237.000000, -280.500000, -553.500000,   0.568755,  15.645371, -25.783998,   0.965516,   0.133766,  -0.025572,  -0.221684, 
30953,  -0.063938,   2.547933,   9.325868, -20.679094,  -6.635022, -26.401880,   0.024264,   0.724003,  -1.189270, -241.500000, -283.500000, -549.000000,   0.574848,  15.442526, -26.056460,   0.965224,   0.132009,  -0.025443,  -0.224032, 
30954,  -0.094591,   2.560197,   9.330174, -21.497210,  -6.515491, -26.590560,   0.022303,   0.741656,  -1.163371, -243.000000, -276.000000, -541.500000,   0.585713,  15.229091, -26.328656,   0.964925,   0.130172,  -0.025243,  -0.226382, 
30955,  -0.125707,   2.469349,   9.348961, -22.477778,  -6.378520, -26.533176,   0.023208,   0.754148,  -1.157101, -243.000000, -271.500000, -540.000000,   0.599264,  15.004912, -26.601724,   0.964634,   0.128252,  -0.024992,  -0.228746, 
30956,  -0.146923,   2.538844,   9.486164, -22.912348,  -6.370944, -26.795048,   0.008359,   0.747455,  -1.156059, -250.500000, -273.000000, -540.000000,   0.608181,  14.772499, -26.875054,   0.964337,   0.126253,  -0.024754,  -0.231106, 
30957,  -0.157284,   2.459753,   9.492982, -22.613582,  -6.285326, -26.927552,   0.007425,   0.769996,  -1.157385, -252.000000, -265.500000, -541.500000,   0.612005,  14.541961, -27.149778,   0.964025,   0.124261,  -0.024554,  -0.233470, 
30958,  -0.109619,   2.395219,   9.419654, -23.038830,  -6.139485, -26.818440,   0.006708,   0.761125,  -1.158540, -252.000000, -268.500000, -541.500000,   0.616085,  14.314596, -27.425150,   0.963707,   0.122299,  -0.024351,  -0.235840, 
30959,  -0.126243,   2.389980,   9.377755, -23.458352,  -6.022190, -26.878028,   0.003451,   0.756238,  -1.158793, -253.500000, -270.000000, -541.500000,   0.627441,  14.082996, -27.699766,   0.963393,   0.120318,  -0.024067,  -0.238212, 
30960,  -0.142848,   2.254062,   9.451179, -24.306680,  -5.779319, -26.538808,   0.007579,   0.768004,  -1.171575, -252.000000, -267.000000, -546.000000,   0.640940,  13.842928, -27.972438,   0.963069,   0.118272,  -0.023736,  -0.240568, 
30961,  -0.167857,   2.302368,   9.410435, -25.188034,  -5.636404, -26.433808,   0.003747,   0.790093,  -1.172577, -255.000000, -259.500000, -547.500000,   0.657289,  13.597614, -28.242394,   0.962741,   0.116188,  -0.023357,  -0.242902, 
30962,  -0.100546,   2.115810,   9.344580, -26.151054,  -5.551660, -26.337510,  -0.004571,   0.795980,  -1.161375, -259.500000, -256.500000, -544.500000,   0.667445,  13.324449, -28.512024,   0.962427,   0.113859,  -0.022960,  -0.245229, 
30963,  -0.214816,   2.267704,   9.509734, -27.185060,  -5.322762, -26.303256,  -0.007315,   0.793537,  -1.175241, -261.000000, -258.000000, -549.000000,   0.685395,  13.058444, -28.780268,   0.962106,   0.111611,  -0.022501,  -0.247552, 
30964,  -0.237252,   2.083985,   9.596130, -27.238398,  -5.146621, -25.898442,   0.001395,   0.797698,  -1.166560, -256.500000, -256.500000, -546.000000,   0.709989,  12.782901, -29.045948,   0.961798,   0.109300,  -0.021953,  -0.249862, 
30965,  -0.204587,   2.154796,   9.473536, -27.426674,  -4.931110, -25.587246,   0.006711,   0.801770,  -1.134291, -253.500000, -253.500000, -535.500000,   0.727918,  12.511545, -29.307904,   0.961481,   0.107013,  -0.021456,  -0.252129, 
30966,  -0.228074,   2.045112,   9.507056, -27.870958,  -4.759910, -25.358956,  -0.006515,   0.816440,  -1.125823, -261.000000, -247.500000, -534.000000,   0.748554,  12.225210, -29.566342,   0.961168,   0.104609,  -0.020888,  -0.254369, 
30967,  -0.165883,   1.952321,   9.519851, -28.401208,  -4.586166, -25.058074,  -0.011065,   0.829658,  -1.127980, -264.000000, -243.000000, -535.500000,   0.764694,  11.938182, -29.822220,   0.960839,   0.102190,  -0.020344,  -0.256577, 
30968,  -0.148784,   1.947913,   9.487515, -29.026576,  -4.356001, -25.173048,  -0.011048,   0.832465,  -1.118328, -264.000000, -241.500000, -532.500000,   0.777958,  11.646151, -30.076970,   0.960517,   0.099727,  -0.019800,  -0.258774, 
30969,  -0.085692,   1.760361,   9.471532, -29.818018,  -4.420851, -25.844344,  -0.011048,   0.832465,  -1.118328, -264.000000, -241.500000, -532.500000,   0.776952,  11.333644, -30.334610,   0.960212,   0.097062,  -0.019321,  -0.260989, 
30970,  -0.097685,   1.715872,   9.588067, -31.111170,  -4.357648, -26.440562,  -0.015972,   0.838441,  -1.130715, -267.000000, -240.000000, -537.000000,   0.776633,  11.012068, -30.599452,   0.959873,   0.094323,  -0.018809,  -0.263260, 
30971,  -0.000379,   1.833755,   9.539888, -31.788978,  -4.412869, -27.110434,  -0.025555,   0.827401,  -1.126360, -271.500000, -243.000000, -535.500000,   0.772291,  10.697484, -30.870752,   0.959506,   0.091635,  -0.018340,  -0.265581, 
30972,  -0.097272,   1.850484,   9.652490, -31.959096,  -4.344147, -27.668074,  -0.023186,   0.822602,  -1.122724, -270.000000, -244.500000, -534.000000,   0.777194,  10.382827, -31.147756,   0.959102,   0.088968,  -0.017785,  -0.267951, 
30973,  -0.087328,   1.765767,   9.745162, -31.252706,  -4.141869, -27.804646,  -0.012700,   0.846134,  -1.120809, -265.500000, -237.000000, -534.000000,   0.779139,  10.073176, -31.427588,   0.958681,   0.086339,  -0.017255,  -0.270342, 
30974,  -0.190988,   1.820105,   9.668295, -30.392914,  -4.082985, -28.081330,  -0.014847,   0.860167,  -1.100025, -267.000000, -231.000000, -528.000000,   0.785967,   9.772702, -31.708834,   0.958241,   0.083800,  -0.016695,  -0.272745, 
30975,  -0.200486,   1.788088,   9.746694, -29.790472,  -3.905170, -27.827848,  -0.017729,   0.862522,  -1.090048, -268.500000, -229.500000, -525.000000,   0.796763,   9.496466, -31.989580,   0.957761,   0.081476,  -0.016147,  -0.275138, 
30976,  -0.137763,   1.725246,   9.718790, -28.629564,  -3.702053, -27.593880,  -0.023150,   0.868861,  -1.079170, -271.500000, -226.500000, -522.000000,   0.799918,   9.216626, -32.268078,   0.957290,   0.079107,  -0.015641,  -0.277507, 
30977,  -0.216304,   1.652770,   9.777761, -27.726918,  -3.597190, -27.555962,  -0.036923,   0.875474,  -1.076395, -279.000000, -223.500000, -522.000000,   0.817411,   8.944980, -32.545040,   0.956793,   0.076843,  -0.015022,  -0.279867, 
30978,  -0.193445,   1.677478,   9.787394, -26.386184,  -3.457105, -27.390754,  -0.041489,   0.885886,  -1.088205, -282.000000, -220.500000, -526.500000,   0.826937,   8.694432, -32.821362,   0.956277,   0.074739,  -0.014511,  -0.282211, 
30979,  -0.248571,   1.741386,   9.860795, -24.642508,  -3.380113, -27.204816,  -0.046943,   0.886612,  -1.096632, -285.000000, -220.500000, -529.500000,   0.847343,   8.457803, -33.095608,   0.955755,   0.072782,  -0.013932,  -0.284544, 
30980,  -0.332298,   1.771616,   9.993567, -22.030874,  -3.233765, -26.981986,  -0.038608,   0.883531,  -1.098181, -280.500000, -222.000000, -529.500000,   0.868548,   8.259246, -33.367546,   0.955193,   0.071147,  -0.013431,  -0.286846, 
30981,  -0.283922,   1.737150,   9.990954, -18.981800,  -3.132704, -26.720326,  -0.029897,   0.887692,  -1.089501, -276.000000, -220.500000, -526.500000,   0.885042,   8.092462, -33.636836,   0.954619,   0.069767,  -0.013040,  -0.289120, 
30982,  -0.292298,   1.707708,   9.953102, -15.812369,  -3.050681, -26.649140,  -0.035335,   0.891224,  -1.088275, -279.000000, -219.000000, -526.500000,   0.903865,   7.958525, -33.904240,   0.954013,   0.068669,  -0.012705,  -0.291371, 
30983,  -0.266416,   1.672273,   9.885402, -13.537020,  -3.100981, -26.764216,  -0.036986,   0.904894,  -1.090756, -280.500000, -214.500000, -528.000000,   0.915884,   7.845124, -34.171644,   0.953386,   0.067726,  -0.012475,  -0.293613, 
30984,  -0.212293,   1.580485,   9.871579, -11.346038,  -3.027383, -27.043372,  -0.039355,   0.909692,  -1.094392, -282.000000, -213.000000, -529.500000,   0.924971,   7.743276, -34.440996,   0.952748,   0.066873,  -0.012295,  -0.295868, 
30985,  -0.250205,   1.512509,   9.963906,  -9.345107,  -3.059850, -27.274294,  -0.043841,   0.893491,  -1.082188, -283.500000, -217.500000, -525.000000,   0.935294,   7.663446, -34.712904,   0.952090,   0.066207,  -0.012161,  -0.298143, 
30986,  -0.157657,   1.511319,   9.766890,  -7.283636,  -3.084618, -27.713280,  -0.047390,   0.895394,  -1.044409, -285.000000, -214.500000, -513.000000,   0.940080,   7.599950, -34.988380,   0.951414,   0.065663,  -0.012114,  -0.300443, 
30987,  -0.205815,   1.414467,   9.838466,  -6.047099,  -3.142411, -28.022694,  -0.046673,   0.904265,  -1.043254, -285.000000, -211.500000, -513.000000,   0.950574,   7.540533, -35.267028,   0.950715,   0.065169,  -0.012029,  -0.302769, 
30988,  -0.256191,   1.359819,   9.781987,  -5.197734,  -3.252006, -28.198044,  -0.052673,   0.896935,  -1.057374, -288.000000, -214.500000, -517.500000,   0.963619,   7.493853, -35.549192,   0.949982,   0.064786,  -0.011957,  -0.305118, 
30989,  -0.147936,   1.308245,   9.634035,  -4.784644,  -3.200750, -28.427560,  -0.060308,   0.906080,  -1.064322, -292.500000, -211.500000, -520.500000,   0.965883,   7.447688, -35.833180,   0.949246,   0.064380,  -0.011975,  -0.307477, 
30990,  -0.141756,   1.262643,   9.674183,  -4.955245,  -3.176377, -28.959890,  -0.062693,   0.908072,  -1.077610, -294.000000, -211.500000, -525.000000,   0.968868,   7.397065, -36.121012,   0.948502,   0.063939,  -0.011975,  -0.309868, 
30991,  -0.175335,   1.305814,   9.729438,  -5.212878,  -3.230726, -29.268298,  -0.062318,   0.915314,  -1.067380, -294.000000, -208.500000, -522.000000,   0.975272,   7.350600, -36.412992,   0.947743,   0.063542,  -0.011958,  -0.312295, 
30992,  -0.063697,   1.304255,   9.688957,  -5.099956,  -3.152461, -29.570266,  -0.068611,   0.914774,  -1.043467, -297.000000, -207.000000, -514.500000,   0.969605,   7.305331, -36.708096,   0.946964,   0.063121,  -0.012045,  -0.314737, 
30993,  -0.087917,   1.229953,   9.658038,  -5.219793,  -3.190035, -30.016104,  -0.076946,   0.917855,  -1.041918, -301.500000, -205.500000, -514.500000,   0.962918,   7.253832, -37.006700,   0.946163,   0.062645,  -0.012122,  -0.317203, 
30994,   0.004762,   1.188214,   9.656930,  -5.795753,  -3.351799, -30.599716,  -0.082400,   0.918581,  -1.050345, -304.500000, -205.500000, -517.500000,   0.950127,   7.194530, -37.310324,   0.945354,   0.062088,  -0.012228,  -0.319709, 
30995,   0.012204,   1.087208,   9.617375,  -6.643584,  -3.256106, -31.408024,  -0.076963,   0.915049,  -1.051570, -301.500000, -207.000000, -517.500000,   0.933249,   7.119213, -37.621440,   0.944535,   0.061387,  -0.012324,  -0.322277, 
30996,   0.117840,   1.060905,   9.549685,  -7.871312,  -3.428178, -32.564698,  -0.074390,   0.916677,  -1.033167, -300.000000, -205.500000, -511.500000,   0.906576,   7.035897, -37.942856,   0.943693,   0.060592,  -0.012479,  -0.324926, 
30997,   0.142354,   1.025992,   9.521518,  -9.311227,  -3.387456, -33.954892,  -0.083443,   0.910888,  -1.032772, -304.500000, -207.000000, -511.500000,   0.882552,   6.931016, -38.277052,   0.942787,   0.059623,  -0.012554,  -0.327672, 
30998,   0.008056,   1.070221,   9.510579, -11.076387,  -3.540072, -35.415936,  -0.088025,   0.918493,  -1.054234, -307.500000, -205.500000, -519.000000,   0.861697,   6.817692, -38.624960,   0.941841,   0.058592,  -0.012579,  -0.330532, 
30999,   0.089704,   1.035087,   9.512278, -12.726095,  -3.580819, -36.789596,  -0.096515,   0.923566,  -1.038495, -312.000000, -202.500000, -514.500000,   0.842227,   6.685377, -38.987336,   0.940861,   0.057409,  -0.012539,  -0.333514, 
31000,  -0.089229,   1.068377,   9.584346, -14.193851,  -3.587363, -38.352104,  -0.098680,   0.934792,  -1.027363, -313.500000, -198.000000, -511.500000,   0.828369,   6.539598, -39.364116,   0.939846,   0.056132,  -0.012413,  -0.336619, 
31001,  -0.108072,   1.090130,   9.579300, -15.469875,  -3.578021, -39.230488,  -0.098867,   0.931171,  -1.032478, -313.500000, -199.500000, -513.000000,   0.823207,   6.389742, -39.752980,   0.938757,   0.054846,  -0.012202,  -0.339815, 
31002,  -0.194781,   1.011642,   9.534731, -16.724564,  -3.478129, -39.785984,  -0.105022,   0.925832,  -1.032408, -316.500000, -201.000000, -513.000000,   0.831534,   6.223766, -40.149140,   0.937649,   0.053470,  -0.011826,  -0.343078, 
31003,  -0.124528,   0.966255,   9.495881, -18.248542,  -3.353486, -40.066488,  -0.104834,   0.929453,  -1.027292, -316.500000, -199.500000, -511.500000,   0.829939,   6.044957, -40.549180,   0.936539,   0.051963,  -0.011485,  -0.346371, 
31004,  -0.259680,   1.019054,   9.644417, -19.851368,  -3.283834, -40.312080,  -0.105598,   0.952808,  -1.033156, -318.000000, -192.000000, -514.500000,   0.852366,   5.847074, -40.951816,   0.935407,   0.050376,  -0.010881,  -0.349691, 
31005,  -0.180570,   0.924233,   9.653598, -20.856492,  -3.117030, -40.230264,  -0.108121,   0.959599,  -1.022602, -319.500000, -189.000000, -511.500000,   0.864728,   5.637117, -41.354652,   0.934260,   0.048663,  -0.010310,  -0.353001, 
31006,  -0.174625,   0.994525,   9.656052, -21.733332,  -2.931461, -40.287868,  -0.117686,   0.951365,  -1.008595, -324.000000, -190.500000, -507.000000,   0.878358,   5.424463, -41.757416,   0.933093,   0.046937,  -0.009709,  -0.356304, 
31007,  -0.248893,   0.898309,   9.760480, -21.970140,  -2.820238, -40.098008,  -0.126397,   0.947204,  -1.017276, -328.500000, -192.000000, -510.000000,   0.898886,   5.205127, -42.158948,   0.931931,   0.045184,  -0.009018,  -0.359600, 
31008,  -0.221665,   0.918423,   9.724895, -22.317812,  -2.540928, -39.946992,  -0.129278,   0.949559,  -1.007299, -330.000000, -190.500000, -507.000000,   0.915682,   4.988849, -42.559228,   0.930734,   0.043448,  -0.008355,  -0.362870, 
31009,  -0.202165,   0.829125,   9.682880, -22.379180,  -2.434825, -39.712736,  -0.128032,   0.963680,  -1.010104, -330.000000, -186.000000, -508.500000,   0.934161,   4.762203, -42.957412,   0.929545,   0.041639,  -0.007632,  -0.366122, 
31010,  -0.303147,   0.770506,   9.788710, -22.536684,  -2.205864, -39.463820,  -0.127348,   0.966938,  -1.028254, -330.000000, -186.000000, -514.500000,   0.952245,   4.532416, -43.353180,   0.928366,   0.039810,  -0.006888,  -0.369355, 
31011,  -0.268095,   0.781374,   9.764981, -22.556294,  -2.022668, -39.211300,  -0.135871,   0.966398,  -1.031819, -334.500000, -186.000000, -516.000000,   0.971326,   4.301837, -43.746748,   0.927178,   0.037983,  -0.006121,  -0.372565, 
31012,  -0.262272,   0.633258,   9.781053, -22.305768,  -1.894550, -38.782720,  -0.141292,   0.972737,  -1.020942, -337.500000, -183.000000, -513.000000,   0.989006,   4.067797, -44.136556,   0.925965,   0.036128,  -0.005340,  -0.375729, 
31013,  -0.347425,   0.691720,   9.846949, -21.978434,  -1.674261, -38.659156,  -0.141788,   0.973100,  -0.997676, -337.500000, -181.500000, -505.500000,   1.002397,   3.840126, -44.522744,   0.924755,   0.034317,  -0.004601,  -0.378858, 
31014,  -0.215056,   0.552567,   9.852169, -21.312212,  -1.648134, -38.078892,  -0.145232,   0.964592,  -1.003045, -339.000000, -184.500000, -507.000000,   1.018687,   3.613934, -44.905648,   0.923555,   0.032533,  -0.003830,  -0.381961, 
31015,  -0.265856,   0.563212,   9.817371, -20.826684,  -1.359365, -37.439872,  -0.142163,   0.965858,  -1.007907, -337.500000, -184.500000, -508.500000,   1.035534,   3.396926, -45.282888,   0.922344,   0.030829,  -0.003072,  -0.385008, 
31016,  -0.284170,   0.508653,   9.890442, -20.288668,  -1.318614, -36.568728,  -0.142147,   0.968665,  -0.998254, -337.500000, -183.000000, -505.500000,   1.056272,   3.183843, -45.652904,   0.921146,   0.029177,  -0.002284,  -0.387992, 
31017,  -0.241300,   0.521831,   9.772084, -19.702094,  -1.030952, -35.324240,  -0.153193,   0.974915,  -0.991266, -343.500000, -180.000000, -504.000000,   1.069391,   2.980066, -46.011728,   0.919984,   0.027578,  -0.001575,  -0.390885, 
31018,  -0.278674,   0.416456,   9.743012, -19.632644,  -0.927719, -34.040380,  -0.153176,   0.977722,  -0.981613, -343.500000, -178.500000, -501.000000,   1.089587,   2.772864, -46.358604,   0.918860,   0.025982,  -0.000784,  -0.393681, 
31019,  -0.226685,   0.293761,   9.723643, -19.779648,  -0.681604, -33.134452,  -0.149578,   0.984238,  -0.990435, -342.000000, -177.000000, -504.000000,   1.097616,   2.548289, -46.693528,   0.917736,   0.024208,  -0.000019,  -0.396359, 
31020,  -0.197618,   0.213698,   9.849444, -20.083506,  -0.664368, -32.214974,  -0.160282,   0.992117,  -0.992521, -348.000000, -174.000000, -505.500000,   1.107302,   2.325659, -47.019616,   0.916637,   0.022461,   0.000763,  -0.398965, 
31021,  -0.145982,   0.161015,   9.750122, -19.900286,  -0.515045, -31.923106,  -0.169472,   0.991126,  -0.968284, -352.500000, -172.500000, -498.000000,   1.110533,   2.094338, -47.340080,   0.915561,   0.020626,   0.001537,  -0.401526, 
31022,  -0.136265,   0.045543,   9.751692, -20.386956,  -0.408704, -31.834716,  -0.175594,   0.991400,  -0.948909, -355.500000, -171.000000, -492.000000,   1.108150,   1.850062, -47.657820,   0.914497,   0.018672,   0.002322,  -0.404063, 
31023,  -0.143246,  -0.020969,   9.731724, -20.850808,  -0.209369, -31.719276,  -0.181373,   0.993304,  -0.938608, -358.500000, -169.500000, -489.000000,   1.115063,   1.596433, -47.975036,   0.913420,   0.016682,   0.003226,  -0.406590, 
31024,  -0.141168,  -0.082181,   9.595369, -21.812162,  -0.089255, -31.275180,  -0.183212,   1.003352,  -0.946204, -360.000000, -166.500000, -492.000000,   1.122441,   1.340107, -48.289572,   0.912332,   0.014676,   0.004154,  -0.409087, 
31025,  -0.135060,  -0.287016,   9.464259, -24.095620,  -0.003749, -31.237898,  -0.185051,   1.013401,  -0.953800, -361.500000, -163.500000, -495.000000,   1.127509,   1.043935, -48.602336,   0.911235,   0.012350,   0.005217,  -0.411558, 
31026,  -0.217132,  -0.212376,   9.545140, -27.004722,   0.198594, -31.248942,  -0.191564,   1.003627,  -0.954307, -364.500000, -166.500000, -495.000000,   1.143204,   0.733338, -48.915084,   0.910138,   0.009954,   0.006431,  -0.414030, 
31027,  -0.022723,  -0.324758,   9.495170, -29.132436,   0.371785, -31.391148,  -0.185956,   1.000909,  -0.960070, -361.500000, -168.000000, -496.500000,   1.140713,   0.397185, -49.228592,   0.909042,   0.007296,   0.007606,  -0.416504, 
31028,  -0.127082,  -0.149583,   9.583625, -31.447608,   0.678401, -31.620074,  -0.184897,   1.011409,  -0.967990, -361.500000, -165.000000, -499.500000,   1.135078,   0.059315, -49.543868,   0.907910,   0.004620,   0.008776,  -0.418979, 
31029,  -0.170990,  -0.237248,   9.790386, -32.597846,   0.780527, -31.300220,  -0.185939,   1.003715,  -0.950418, -361.500000, -166.500000, -493.500000,   1.138853,  -0.291953, -49.857432,   0.906757,   0.001878,   0.010085,  -0.421427, 
31030,  -0.290295,  -0.122140,   9.799608, -33.059970,   1.024203, -30.822320,  -0.193291,   0.992675,  -0.918584, -364.500000, -168.000000, -483.000000,   1.150982,  -0.631920, -50.167880,   0.905609,  -0.000736,   0.011433,  -0.423847, 
31031,  -0.230347,  -0.139729,   9.911583, -32.475876,   1.141510, -30.230706,  -0.201656,   1.030789,  -0.912091, -370.500000, -154.500000, -483.000000,   1.163419,  -0.962799, -50.471952,   0.904486,  -0.003271,   0.012764,  -0.426218, 
31032,  -0.285964,  -0.140888,  10.020350, -31.108882,   1.444991, -29.409578,  -0.200768,   1.040474,  -0.915474, -370.500000, -151.500000, -484.500000,   1.177051,  -1.275368, -50.769392,   0.903374,  -0.005651,   0.014049,  -0.428531, 
31033,  -0.267718,  -0.149103,   9.949659, -29.238176,   1.444684, -28.623120,  -0.201811,   1.032781,  -0.897901, -370.500000, -153.000000, -478.500000,   1.190173,  -1.565558, -51.058364,   0.902264,  -0.007851,   0.015258,  -0.430764, 
31034,  -0.209383,  -0.420406,   9.856665, -27.469688,   1.469571, -28.176752,  -0.199426,   1.030789,  -0.884613, -369.000000, -153.000000, -474.000000,   1.200062,  -1.858341, -51.341536,   0.901163,  -0.010078,   0.016461,  -0.432946, 
31035,  -0.269083,  -0.423859,   9.937069, -26.541840,   1.576103, -27.799112,  -0.208136,   1.026628,  -0.893293, -373.500000, -154.500000, -477.000000,   1.210220,  -2.139048, -51.621272,   0.900077,  -0.012204,   0.017631,  -0.435101, 
31036,  -0.086069,  -0.433937,   9.872918, -25.166466,   1.751873, -27.598076,  -0.219011,   1.033693,  -0.890842, -379.500000, -151.500000, -477.000000,   1.204389,  -2.409918, -51.897308,   0.899006,  -0.014309,   0.018648,  -0.437232, 
31037,  -0.112753,  -0.549197,   9.945820, -23.716018,   1.750961, -27.120860,  -0.218465,   1.041749,  -0.885150, -379.500000, -148.500000, -475.500000,   1.198299,  -2.661426, -52.170700,   0.897934,  -0.016259,   0.019599,  -0.439338, 
31038,  -0.218529,  -0.484371,   9.953929, -22.108896,   1.926520, -26.856352,  -0.212465,   1.049080,  -0.871030, -376.500000, -145.500000, -471.000000,   1.198764,  -2.900749, -52.440400,   0.896856,  -0.018084,   0.020563,  -0.441405, 
31039,  -0.230003,  -0.523278,   9.927850, -20.410382,   1.882162, -26.063868,  -0.216080,   1.039757,  -0.871861, -378.000000, -148.500000, -471.000000,   1.200546,  -3.111818, -52.704012,   0.895794,  -0.019680,   0.021435,  -0.443423, 
31040,  -0.225686,  -0.549188,   9.869438, -18.934194,   1.936253, -25.254674,  -0.221705,   1.039669,  -0.875751, -381.000000, -148.500000, -472.500000,   1.199903,  -3.310220, -52.959876,   0.894763,  -0.021183,   0.022245,  -0.445383, 
31041,  -0.283326,  -0.655390,   9.905526, -17.622106,   1.920293, -24.300586,  -0.227297,   1.045193,  -0.860335, -384.000000, -145.500000, -468.000000,   1.210220,  -3.506133, -53.207120,   0.893768,  -0.022623,   0.023136,  -0.447274, 
31042,  -0.263821,  -0.753464,   9.851898, -16.370338,   1.923457, -23.111846,  -0.236537,   1.035782,  -0.865056, -388.500000, -148.500000, -469.500000,   1.223724,  -3.688319, -53.443908,   0.892816,  -0.023942,   0.024002,  -0.449083, 
31043,  -0.331077,  -0.729999,   9.773513, -15.694334,   1.846740, -22.148436,  -0.236929,   1.025734,  -0.884938, -388.500000, -153.000000, -475.500000,   1.241133,  -3.866637, -53.670500,   0.891884,  -0.025214,   0.024886,  -0.450802, 
31044,  -0.293657,  -0.868268,   9.686944, -15.540712,   1.858478, -21.519922,  -0.233843,   1.029806,  -0.880147, -387.000000, -151.500000, -474.000000,   1.257955,  -4.051622, -53.888676,   0.890984,  -0.026538,   0.025795,  -0.452454, 
31045,  -0.232109,  -0.810554,   9.659113, -16.399771,   1.971502, -20.674490,  -0.224962,   1.034782,  -0.876004, -382.500000, -150.000000, -472.500000,   1.266705,  -4.230878, -54.099652,   0.890112,  -0.027849,   0.026623,  -0.454052, 
31046,  -0.177930,  -0.916471,   9.615773, -17.156058,   1.975148, -20.299824,  -0.211610,   1.053152,  -0.893718, -376.500000, -145.500000, -478.500000,   1.274939,  -4.428841, -54.304636,   0.889243,  -0.029304,   0.027523,  -0.455590, 
31047,  -0.182189,  -0.858696,   9.698405, -18.111070,   1.891339, -19.720036,  -0.213945,   1.063564,  -0.878049, -378.000000, -141.000000, -474.000000,   1.280671,  -4.618388, -54.505588,   0.888392,  -0.030702,   0.028375,  -0.457100, 
31048,  -0.157128,  -0.793729,   9.663226, -18.479018,   2.080671, -19.390012,  -0.225863,   1.062935,  -0.858025, -384.000000, -139.500000, -468.000000,   1.278776,  -4.807736, -54.701340,   0.887561,  -0.032128,   0.029170,  -0.458572, 
31049,  -0.264475,  -0.807142,   9.801105, -18.745944,   2.092690, -18.896674,  -0.234370,   1.065202,  -0.851938, -388.500000, -138.000000, -466.500000,   1.281691,  -4.989047, -54.892648,   0.886746,  -0.033471,   0.029975,  -0.460007, 
31050,  -0.187215,  -0.834599,   9.779825, -18.574618,   2.121075, -18.485242,  -0.239978,   1.067920,  -0.846175, -391.500000, -136.500000, -465.000000,   1.279093,  -5.171341, -55.079104,   0.885937,  -0.034842,   0.030743,  -0.461399, 
31051,  -0.145856,  -0.959328,   9.782934, -18.156072,   2.162857, -18.048610,  -0.242143,   1.079146,  -0.835044, -393.000000, -132.000000, -462.000000,   1.273267,  -5.355289, -55.261624,   0.885143,  -0.036237,   0.031496,  -0.462761, 
31052,  -0.117676,  -1.106360,   9.591306, -18.274148,   2.184800, -18.063058,  -0.248843,   1.065751,  -0.840665, -396.000000, -136.500000, -463.500000,   1.266197,  -5.563092, -55.442656,   0.884348,  -0.037820,   0.032341,  -0.464107, 
31053,  -0.120352,  -1.211265,   9.622428, -19.484288,   2.190547, -17.869352,  -0.246491,   1.058146,  -0.846682, -394.500000, -139.500000, -465.000000,   1.261924,  -5.782748, -55.622916,   0.883538,  -0.039480,   0.033259,  -0.465434, 
31054,  -0.128914,  -1.343795,   9.550930, -20.506928,   2.217787, -17.834684,  -0.245057,   1.075888,  -0.844372, -394.500000, -133.500000, -465.000000,   1.258175,  -6.030730, -55.802140,   0.882716,  -0.041353,   0.034302,  -0.466741, 
31055,  -0.139802,  -1.429564,   9.548691, -21.803262,   2.354307, -17.814628,  -0.244699,   1.080323,  -0.843795, -394.500000, -132.000000, -465.000000,   1.255288,  -6.294811, -55.981848,   0.881886,  -0.043344,   0.035424,  -0.468047, 
31056,  -0.177766,  -1.488445,   9.587647, -22.986422,   2.409207, -18.050064,  -0.250462,   1.085033,  -0.823841, -397.500000, -129.000000, -459.000000,   1.256806,  -6.574077, -55.194424,   0.884972,  -0.045737,   0.036262,  -0.461888, 
31057,  -0.242803,  -1.637756,   9.589224, -23.936536,   2.632139, -18.568108,  -0.247905,   1.083856,  -0.815091, -396.000000, -129.000000, -456.000000,   1.267353,  -6.875142, -54.434940,   0.887899,  -0.048267,   0.037238,  -0.455915, 
31058,  -0.237686,  -1.626428,   9.559369, -24.861100,   2.780296, -19.395672,  -0.248623,   1.074985,  -0.816246, -396.000000, -132.000000, -456.000000,   1.277344,  -7.181322, -53.708040,   0.890646,  -0.050844,   0.038212,  -0.450169, 
31059,  -0.195469,  -1.624353,   9.622636, -25.387498,   3.029615, -20.364036,  -0.257488,   1.072816,  -0.810736, -400.500000, -132.000000, -454.500000,   1.280747,  -7.490503, -53.017248,   0.893191,  -0.053469,   0.039131,  -0.444680, 
31060,  -0.081241,  -1.673884,   9.633683, -25.660756,   3.217221, -21.302666,  -0.254231,   1.077703,  -0.810483, -399.000000, -130.500000, -454.500000,   1.271426,  -7.792133, -52.349176,   0.895623,  -0.056090,   0.039902,  -0.439367, 
31061,  -0.028290,  -1.644985,   9.619146, -25.883604,   3.447095, -22.458528,  -0.253872,   1.082138,  -0.809905, -399.000000, -129.000000, -454.500000,   1.259913,  -8.092795, -51.703288,   0.897935,  -0.058714,   0.040635,  -0.434216, 
31062,  -0.040609,  -1.705941,   9.623340, -26.414550,   3.846710, -23.806232,  -0.255119,   1.068017,  -0.807100, -399.000000, -133.500000, -453.000000,   1.244407,  -8.392684, -51.091416,   0.900088,  -0.061345,   0.041323,  -0.429321, 
31063,  -0.043649,  -1.719835,   9.510390, -27.293488,   4.031044, -24.885038,  -0.252563,   1.066840,  -0.798349, -397.500000, -133.500000, -450.000000,   1.228245,  -8.696258, -50.516568,   0.902062,  -0.064001,   0.042013,  -0.424701, 
31064,  -0.023944,  -1.767714,   9.439881, -28.963984,   4.409813, -26.182812,  -0.260728,   1.070735,  -0.801337, -402.000000, -132.000000, -451.500000,   1.206845,  -9.017077, -49.971596,   0.903865,  -0.066809,   0.042715,  -0.420293, 
31065,   0.084194,  -1.931278,   9.383725, -31.327168,   4.810518, -27.367920,  -0.260524,   1.077163,  -0.786570, -402.000000, -129.000000, -447.000000,   1.177922,  -9.364270, -49.453072,   0.905552,  -0.069851,   0.043445,  -0.416092, 
31066,   0.174862,  -1.818705,   9.415954, -33.872440,   5.181637, -28.816646,  -0.265928,   1.086308,  -0.766039, -405.000000, -124.500000, -441.000000,   1.138541,  -9.723060, -48.948772,   0.907149,  -0.073025,   0.044117,  -0.411997, 
31067,   0.132312,  -1.978272,   9.410280, -35.801720,   5.674939, -30.449820,  -0.276599,   1.099801,  -0.748821, -411.000000, -118.500000, -436.500000,   1.101651, -10.109241, -48.469964,   0.908590,  -0.076402,   0.044894,  -0.408074, 
31068,   0.051316,  -1.781097,   9.481155, -37.892956,   6.224910, -31.897136,  -0.278780,   1.108220,  -0.747342, -412.500000, -115.500000, -436.500000,   1.069670, -10.492673, -48.010440,   0.909951,  -0.079740,   0.045686,  -0.404301, 
31069,  -0.057531,  -1.759852,   9.592097, -38.948808,   6.562857, -32.975166,  -0.285326,   1.092833,  -0.767154, -415.500000, -121.500000, -442.500000,   1.048137, -10.871449, -47.586572,   0.911168,  -0.082997,   0.046545,  -0.400798, 
31070,  -0.106655,  -1.761741,   9.585631, -39.463016,   6.894429, -33.895516,  -0.288550,   1.093559,  -0.748102, -417.000000, -120.000000, -436.500000,   1.030763, -11.248336, -47.200180,   0.912236,  -0.086215,   0.047435,  -0.397586, 
31071,  -0.117512,  -1.768428,   9.532887, -39.991640,   7.339471, -34.667028,  -0.293254,   1.108769,  -0.736069, -420.000000, -114.000000, -433.500000,   1.016424, -11.623683, -46.828712,   0.913217,  -0.089409,   0.048333,  -0.394477, 
31072,  -0.109480,  -1.879250,   9.544806, -41.168896,   7.788568, -35.517168,  -0.299221,   1.107052,  -0.730884, -423.000000, -114.000000, -432.000000,   1.001678, -12.010929, -46.478340,   0.914114,  -0.092697,   0.049265,  -0.391534, 
31073,  -0.045659,  -1.959752,   9.443066, -42.269868,   8.221305, -36.440252,  -0.296119,   1.113931,  -0.716440, -421.500000, -111.000000, -427.500000,   0.982570, -12.416210, -46.148508,   0.914897,  -0.096140,   0.050221,  -0.388743, 
31074,   0.007453,  -2.069221,   9.441091, -43.809372,   8.772178, -37.460836,  -0.293050,   1.115197,  -0.721302, -420.000000, -111.000000, -429.000000,   0.960599, -12.837078, -45.835468,   0.915585,  -0.099714,   0.051201,  -0.386074, 
31075,  -0.024463,  -2.230785,   9.392152, -45.726772,   9.466919, -38.738316,  -0.297211,   1.097818,  -0.727825, -421.500000, -117.000000, -430.500000,   0.943531, -13.287539, -45.564952,   0.916079,  -0.103493,   0.052337,  -0.383721, 
31076,  -0.069339,  -2.155877,   9.494754, -47.322016,  10.012155, -40.114492,  -0.302444,   1.107778,  -0.711832, -424.500000, -112.500000, -426.000000,   0.928910, -13.741813, -45.326208,   0.916462,  -0.107286,   0.053518,  -0.381620, 
31077,  -0.027269,  -2.346959,   9.515594, -47.699916,  10.683425, -41.229408,  -0.300263,   1.099358,  -0.713311, -423.000000, -115.500000, -426.000000,   0.912029, -14.205272, -45.112236,   0.916738,  -0.111152,   0.054720,  -0.379712, 
31078,  -0.150148,  -2.267795,   9.477552, -48.488600,  11.452148, -42.608208,  -0.303161,   1.098907,  -0.712987, -424.500000, -115.500000, -426.000000,   0.906836, -14.669952, -44.932000,   0.916865,  -0.114973,   0.056036,  -0.378047, 
31079,  -0.107758,  -2.466073,   9.553864, -48.781720,  12.044088, -43.540840,  -0.313474,   1.116835,  -0.695191, -430.500000, -108.000000, -421.500000,   0.899798, -15.141613, -44.770944,   0.916910,  -0.118849,   0.057368,  -0.376532, 
31080,  -0.180132,  -2.216638,   9.679197, -47.863676,  12.677923, -44.433272,  -0.325220,   1.117021,  -0.679705, -436.500000, -106.500000, -417.000000,   0.894184, -15.579915, -44.621608,   0.916939,  -0.122451,   0.058604,  -0.375123, 
31081,  -0.126485,  -2.333392,   9.744436, -45.505468,  13.160248, -44.729432,  -0.326075,   1.112948,  -0.657017, -436.500000, -106.500000, -409.500000,   0.882992, -15.991483, -44.783904,   0.915950,  -0.125695,   0.060039,  -0.376217, 
31082,  -0.137192,  -2.288502,   9.779208, -42.787716,  13.507699, -45.145876,  -0.322444,   1.125077,  -0.646534, -435.000000, -102.000000, -406.500000,   0.875171, -16.372004, -45.250188,   0.913986,  -0.128511,   0.061749,  -0.379747, 
31083,   0.000106,  -2.487994,   9.666783, -39.855804,  13.856268, -45.246632,  -0.334003,   1.128884,  -0.625933, -441.000000, -99.000000, -400.500000,   0.853808, -16.729374, -45.719404,   0.912012,  -0.131174,   0.063301,  -0.383317, 
31084,  -0.025574,  -2.616058,   9.632275, -37.754852,  14.365592, -45.597364,  -0.338114,   1.119925,  -0.603499, -442.500000, -100.500000, -393.000000,   0.836252, -17.075686, -46.192792,   0.910019,  -0.133723,   0.064873,  -0.386910, 
31085,  -0.076032,  -2.738549,   9.514374, -35.861988,  14.670681, -45.971432,  -0.343910,   1.119022,  -0.602851, -445.500000, -100.500000, -393.000000,   0.823303, -17.414924, -46.670880,   0.907982,  -0.136182,   0.066483,  -0.390520, 
31086,  -0.220878,  -2.825996,   9.506151, -34.345736,  15.119578, -46.225248,  -0.349519,   1.121740,  -0.597088, -448.500000, -99.000000, -391.500000,   0.821873, -17.741982, -47.152956,   0.905933,  -0.138492,   0.068169,  -0.394143, 
31087,  -0.184490,  -2.926453,   9.426093, -32.848808,  15.382621, -46.299816,  -0.343706,   1.125449,  -0.588084, -445.500000, -97.500000, -388.500000,   0.825492, -18.063156, -47.638084,   0.903884,  -0.140726,   0.069900,  -0.397783, 
31088,  -0.257444,  -3.005946,   9.432577, -31.720780,  15.727935, -46.107188,  -0.348598,   1.137038,  -0.581166, -448.500000, -93.000000, -387.000000,   0.838333, -18.375278, -48.123924,   0.901810,  -0.142840,   0.071690,  -0.401401, 
31089,  -0.216263,  -3.141212,   9.311809, -30.826380,  15.905096, -45.850508,  -0.351341,   1.134595,  -0.595032, -450.000000, -94.500000, -391.500000,   0.849189, -18.690014, -48.608080,   0.899702,  -0.144966,   0.073490,  -0.404987, 
31090,  -0.201167,  -3.147122,   9.278866, -30.756640,  16.112564, -45.254256,  -0.354443,   1.127716,  -0.609475, -451.500000, -97.500000, -396.000000,   0.859445, -18.995922, -49.088988,   0.897619,  -0.147018,   0.075269,  -0.408550, 
31091,  -0.144599,  -3.302581,   9.178855, -30.723474,  16.088633, -44.697328,  -0.364897,   1.109797,  -0.592085, -456.000000, -102.000000, -390.000000,   0.867091, -19.316456, -49.564592,   0.895503,  -0.149182,   0.077091,  -0.412046, 
31092,  -0.253274,  -3.330530,   9.192190, -31.359776,  16.101879, -44.129712,  -0.375350,   1.091878,  -0.574696, -460.500000, -106.500000, -384.000000,   0.883810, -19.639218, -50.035652,   0.893395,  -0.151321,   0.079005,  -0.415484, 
31093,  -0.353400,  -3.270000,   9.273518, -31.250018,  16.043253, -43.363680,  -0.376505,   1.105184,  -0.600442, -462.000000, -103.500000, -393.000000,   0.910540, -19.955272, -50.500372,   0.891302,  -0.153360,   0.080982,  -0.418846, 
31094,  -0.377339,  -3.299371,   9.231417, -30.573884,  15.984463, -42.373844,  -0.381413,   1.113967,  -0.603176, -465.000000, -100.500000, -394.500000,   0.938905, -20.258524, -50.955824,   0.889227,  -0.155284,   0.082927,  -0.422122, 
31095,  -0.328679,  -3.376426,   9.250612, -30.078674,  15.900450, -41.177576,  -0.382268,   1.109894,  -0.580489, -465.000000, -100.500000, -387.000000,   0.963472, -20.562826, -51.400876,   0.887178,  -0.157224,   0.084849,  -0.425312, 
31096,  -0.279990,  -3.498281,   9.210171, -29.739572,  15.674842, -39.907220,  -0.382985,   1.101023,  -0.581644, -465.000000, -103.500000, -387.000000,   0.985907, -20.859020, -51.833620,   0.885186,  -0.159109,   0.086724,  -0.428412, 
31097,  -0.334416,  -3.567002,   9.104079, -29.579808,  15.501601, -38.916400,  -0.382097,   1.110709,  -0.585027, -465.000000, -100.500000, -388.500000,   1.010600, -21.167634, -52.255688,   0.883192,  -0.161076,   0.088662,  -0.431399, 
31098,  -0.360322,  -3.666015,   9.018245, -29.711712,  15.337289, -38.050480,  -0.388048,   1.111798,  -0.570189, -468.000000, -99.000000, -384.000000,   1.034279, -21.482718, -52.668616,   0.881185,  -0.163085,   0.090617,  -0.434288, 
31099,  -0.424566,  -3.740100,   8.958108, -30.581288,  15.263778, -37.156260,  -0.386893,   1.098491,  -0.544443, -466.500000, -102.000000, -375.000000,   1.071064, -21.817416, -53.073180,   0.879193,  -0.165192,   0.092751,  -0.437074, 
31100,  -0.456933,  -3.928320,   8.873936, -32.002308,  15.041460, -36.035780,  -0.389416,   1.105282,  -0.533889, -468.000000, -99.000000, -372.000000,   1.110657, -22.175952, -53.467972,   0.877206,  -0.167467,   0.095001,  -0.439753, 
31101,  -0.502142,  -4.076248,   8.759007, -33.790600,  14.978908, -35.151480,  -0.398281,   1.103113,  -0.528379, -472.500000, -99.000000, -370.500000,   1.156593, -22.568896, -53.853152,   0.875174,  -0.169969,   0.097430,  -0.442296, 
31102,  -0.499329,  -3.988227,   8.767939, -36.363904,  14.617546, -33.906920,  -0.394169,   1.112072,  -0.550813, -471.000000, -97.500000, -378.000000,   1.206010, -22.973034, -54.228136,   0.873141,  -0.172534,   0.099929,  -0.444725, 
31103,  -0.487837,  -4.155940,   8.682927, -38.326560,  14.370949, -32.557858,  -0.405932,   1.109452,  -0.544979, -477.000000, -97.500000, -376.500000,   1.251199, -23.407124, -54.590208,   0.871114,  -0.175342,   0.102512,  -0.447029, 
31104,  -0.460208,  -4.142913,   8.714553, -40.840752,  13.954423, -31.054470,  -0.407146,   1.100944,  -0.522870, -477.000000, -99.000000, -369.000000,   1.294682, -23.854636, -54.938172,   0.869114,  -0.178257,   0.105131,  -0.449204, 
31105,  -0.445063,  -4.225260,   8.686740, -43.192048,  13.544459, -29.353830,  -0.407129,   1.103750,  -0.513217, -477.000000, -97.500000, -366.000000,   1.332922, -24.323192, -55.268876,   0.867089,  -0.181344,   0.107777,  -0.451201, 
31106,  -0.391346,  -4.134448,   8.813695, -45.259440,  13.063865, -27.807982,  -0.406754,   1.110992,  -0.502987, -477.000000, -94.500000, -363.000000,   1.357813, -24.792552, -55.582764,   0.865118,  -0.184493,   0.110317,  -0.453083, 
31107,  -0.409459,  -4.254447,   8.733018, -46.752812,  12.661618, -26.145142,  -0.413250,   1.104025,  -0.493842, -480.000000, -96.000000, -360.000000,   1.384097, -25.274818, -55.880164,   0.863195,  -0.187739,   0.112911,  -0.454821, 
31108,  -0.415742,  -4.239878,   8.786161, -48.327208,  12.162442, -24.531334,  -0.413047,   1.110452,  -0.479074, -480.000000, -93.000000, -355.500000,   1.409096, -25.763582, -56.161432,   0.861287,  -0.191035,   0.115506,  -0.456405, 
31109,  -0.429120,  -4.344787,   8.736941, -49.266408,  11.686130, -23.187650,  -0.403636,   1.120678,  -0.478891, -475.500000, -90.000000, -355.500000,   1.431830, -26.262376, -56.426448,   0.859405,  -0.194417,   0.118111,  -0.457843, 
31110,  -0.429879,  -4.377787,   8.688912, -50.339220,  11.406029, -21.805204,  -0.412876,   1.111267,  -0.483611, -480.000000, -93.000000, -357.000000,   1.456862, -26.768670, -56.677808,   0.857559,  -0.197848,   0.120755,  -0.459155, 
31111,  -0.410390,  -4.429372,   8.739384, -51.047724,  10.903352, -20.488452,  -0.415774,   1.110815,  -0.483287, -481.500000, -93.000000, -357.000000,   1.480531, -27.274982, -56.914916,   0.855730,  -0.201281,   0.123373,  -0.460336, 
31112,  -0.452105,  -4.543186,   8.703322, -51.545896,  10.292695, -18.929560,  -0.422424,   1.105840,  -0.459952, -484.500000, -93.000000, -349.500000,   1.506864, -27.785322, -57.136720,   0.853961,  -0.204740,   0.126015,  -0.461388, 
31113,  -0.458715,  -4.640429,   8.577175, -52.272540,   9.931874, -17.908328,  -0.428017,   1.111364,  -0.444537, -487.500000, -90.000000, -345.000000,   1.532818, -28.313756, -57.344492,   0.852202,  -0.208339,   0.128713,  -0.462302, 
31114,  -0.414688,  -4.678209,   8.636362, -52.907456,   9.603041, -16.775274,  -0.430711,   1.117340,  -0.429445, -489.000000, -87.000000, -340.500000,   1.553988, -28.842138, -57.540968,   0.850456,  -0.211954,   0.131363,  -0.463119, 
31115,  -0.395244,  -4.704644,   8.650784, -52.917680,   9.294065, -15.925088,  -0.426566,   1.131913,  -0.432574, -487.500000, -82.500000, -342.000000,   1.569644, -29.359246, -57.727532,   0.848762,  -0.215511,   0.133920,  -0.463878, 
31116,  -0.379731,  -4.705167,   8.650768, -52.528156,   8.924072, -14.841436,  -0.434185,   1.143865,  -0.429870, -492.000000, -78.000000, -342.000000,   1.586832, -29.865926, -57.903464,   0.847094,  -0.218979,   0.136430,  -0.464541, 
31117,  -0.312124,  -4.667910,   8.735822, -51.398704,   8.632492, -14.136004,  -0.424694,   1.127477,  -0.405673, -486.000000, -82.500000, -333.000000,   1.588342, -30.340264, -58.069588,   0.845500,  -0.222274,   0.138684,  -0.465191, 
31118,  -0.327326,  -4.642625,   8.800711, -49.331336,   8.260178, -13.332710,  -0.420470,   1.115437,  -0.384789, -483.000000, -85.500000, -325.500000,   1.590908, -30.779984, -58.226928,   0.844012,  -0.225315,   0.140798,  -0.465814, 
31119,  -0.332938,  -4.673319,   8.829500, -46.418224,   8.006080, -12.612767,  -0.436003,   1.105486,  -0.365596, -490.500000, -87.000000, -319.500000,   1.588786, -31.180152, -58.375376,   0.842611,  -0.228084,   0.142703,  -0.466414, 
31120,  -0.302561,  -4.679005,   8.819755, -43.042052,   7.683647, -11.904407,  -0.435440,   1.116349,  -0.350251, -490.500000, -82.500000, -315.000000,   1.585964, -31.542808, -58.516656,   0.841301,  -0.230582,   0.144442,  -0.467000, 
31121,  -0.275223,  -4.850621,   8.715318, -39.779356,   7.418436, -11.462203,  -0.431483,   1.127300,  -0.358495, -489.000000, -79.500000, -318.000000,   1.578277, -31.882416, -58.651796,   0.840059,  -0.232935,   0.146044,  -0.467580, 
31122,  -0.294125,  -4.860423,   8.625597, -37.115196,   7.389073, -11.171320,  -0.428243,   1.129381,  -0.367894, -487.500000, -79.500000, -321.000000,   1.572219, -32.199714, -58.783068,   0.838880,  -0.235120,   0.147566,  -0.468155, 
31123,  -0.282400,  -5.017454,   8.515085, -34.808564,   7.364782, -11.016765,  -0.441065,   1.116260,  -0.354141, -493.500000, -82.500000, -316.500000,   1.568462, -32.504960, -58.912788,   0.837720,  -0.237201,   0.149054,  -0.468718, 
31124,  -0.256812,  -5.125473,   8.428971, -33.092724,   7.412850, -10.894506,  -0.440315,   1.130744,  -0.333681, -493.500000, -76.500000, -310.500000,   1.565779, -32.808308, -59.041920,   0.836555,  -0.239259,   0.150544,  -0.469270, 
31125,  -0.228807,  -5.257210,   8.310533, -32.033912,   7.474513, -10.923327,  -0.437059,   1.135631,  -0.333427, -492.000000, -75.000000, -310.500000,   1.563045, -33.112888, -59.171060,   0.835379,  -0.241320,   0.152042,  -0.469813, 
31126,  -0.240602,  -5.322213,   8.266335, -31.549140,   7.583280, -10.889945,  -0.435236,   1.122776,  -0.335484, -490.500000, -79.500000, -310.500000,   1.562491, -33.418946, -59.300784,   0.834199,  -0.243379,   0.153568,  -0.470351, 
31127,  -0.225372,  -5.372861,   8.210742, -30.743200,   7.738420, -10.921825,  -0.434674,   1.133639,  -0.320139, -490.500000, -75.000000, -306.000000,   1.560227, -33.717212, -59.431056,   0.833032,  -0.245385,   0.155056,  -0.470906, 
31128,  -0.248024,  -5.401835,   8.163931, -30.135480,   7.721937, -10.972476,  -0.437726,   1.135180,  -0.305625, -492.000000, -73.500000, -301.500000,   1.558578, -34.006828, -59.562812,   0.831856,  -0.247314,   0.156516,  -0.471467, 
31129,  -0.200853,  -5.474401,   8.102856, -29.745116,   7.885867, -11.212814,  -0.446762,   1.132196,  -0.295578, -496.500000, -73.500000, -298.500000,   1.549743, -34.301344, -59.696024,   0.830652,  -0.249302,   0.157952,  -0.472046, 
31130,  -0.169437,  -5.567838,   8.071748, -29.406230,   8.239459, -11.498698,  -0.449473,   1.135366,  -0.290139, -498.000000, -72.000000, -297.000000,   1.538434, -34.594712, -59.833016,   0.829434,  -0.251285,   0.159379,  -0.472658, 
31131,  -0.162274,  -5.586748,   8.055854, -29.273206,   8.611175, -11.812639,  -0.448943,   1.140616,  -0.294099, -498.000000, -70.500000, -298.500000,   1.529038, -34.887956, -59.974876,   0.828198,  -0.253249,   0.160836,  -0.473300, 
31132,  -0.125117,  -5.586308,   8.056130, -28.745234,   8.954647, -12.253272,  -0.454756,   1.136906,  -0.303103, -501.000000, -72.000000, -301.500000,   1.510953, -35.169480, -60.121540,   0.826958,  -0.255155,   0.162197,  -0.474012, 
31133,  -0.095404,  -5.615427,   8.079349, -27.503562,   9.394335, -12.693037,  -0.458729,   1.123148,  -0.304512, -502.500000, -76.500000, -301.500000,   1.493083, -35.436924, -60.273912,   0.825703,  -0.256941,   0.163515,  -0.474770, 
31134,  -0.077581,  -5.697525,   8.018048, -26.414708,   9.966483, -13.393222,  -0.446779,   1.129390,  -0.305230, -496.500000, -75.000000, -301.500000,   1.470781, -35.698876, -60.433752,   0.824425,  -0.258693,   0.164802,  -0.475599, 
31135,  -0.092490,  -5.677976,   8.024442, -25.214044,  10.537852, -14.196622,  -0.440795,   1.133914,  -0.300763, -493.500000, -73.500000, -300.000000,   1.450757, -35.945400, -60.603132,   0.823134,  -0.260303,   0.166066,  -0.476506, 
31136,  -0.038288,  -5.769730,   7.992325, -23.823508,  11.224977, -14.891443,  -0.443897,   1.127035,  -0.315207, -495.000000, -76.500000, -304.500000,   1.428249, -36.182004, -60.782160,   0.821820,  -0.261836,   0.167297,  -0.477500, 
31137,  -0.063940,  -5.815569,   7.911251, -22.588252,  11.822999, -15.685286,  -0.453479,   1.115995,  -0.310852, -499.500000, -79.500000, -303.000000,   1.407569, -36.410032, -60.971228,   0.820485,  -0.263281,   0.168535,  -0.478572, 
31138,  -0.023821,  -5.892989,   7.827694, -21.919054,  12.493511, -16.475376,  -0.457199,   1.117084,  -0.268536, -501.000000, -76.500000, -289.500000,   1.382979, -36.639284, -61.170552,   0.819092,  -0.264732,   0.169778,  -0.479719, 
31139,  -0.004057,  -5.966778,   7.743397, -21.643704,  13.271351, -17.328816,  -0.460097,   1.116632,  -0.268212, -502.500000, -76.500000, -289.500000,   1.355391, -36.871396, -61.380968,   0.817629,  -0.266191,   0.171041,  -0.480939, 
31140,   0.020893,  -6.050701,   7.694542, -22.055072,  14.068310, -18.232996,  -0.462670,   1.115003,  -0.286615, -504.000000, -78.000000, -295.500000,   1.324541, -37.111784, -61.603468,   0.816092,  -0.267703,   0.172350,  -0.482240, 
31141,  -0.016110,  -6.129499,   7.566737, -23.298288,  14.964595, -19.222902,  -0.466235,   1.114100,  -0.258489, -505.500000, -76.500000, -286.500000,   1.298953, -37.379160, -61.838984,   0.814445,  -0.269361,   0.173849,  -0.483578, 
31142,  -0.011500,  -6.156719,   7.576786, -24.602050,  15.834860, -20.109504,  -0.455140,   1.116269,  -0.236520, -499.500000, -75.000000, -279.000000,   1.279231, -37.654100, -62.087604,   0.812717,  -0.271017,   0.175457,  -0.484971, 
31143,  -0.025059,  -6.098785,   7.593839, -25.915182,  16.634237, -20.945250,  -0.458038,   1.115818,  -0.236196, -501.000000, -75.000000, -279.000000,   1.263157, -37.935240, -62.347400,   0.810929,  -0.272679,   0.177153,  -0.486420, 
31144,  -0.075896,  -6.080511,   7.728620, -26.199924,  17.263468, -21.537712,  -0.473057,   1.108310,  -0.230616, -508.500000, -76.500000, -277.500000,   1.247966, -38.204728, -62.617584,   0.809107,  -0.274227,   0.178834,  -0.487943, 
31145,  -0.036282,  -6.119560,   7.668691, -25.813004,  18.041238, -22.355112,  -0.470159,   1.108762,  -0.230939, -507.000000, -76.500000, -277.500000,   1.226664, -38.467880, -62.897028,   0.807250,  -0.275735,   0.180477,  -0.489553, 
31146,  -0.109969,  -6.104511,   7.680547, -25.581934,  18.713306, -23.036862,  -0.463508,   1.113737,  -0.254275, -504.000000, -76.500000, -285.000000,   1.212564, -38.723104, -63.186760,   0.805381,  -0.277136,   0.182171,  -0.491227, 
31147,  -0.050537,  -6.112373,   7.647936, -24.868572,  19.508268, -23.824254,  -0.469850,   1.104778,  -0.259320, -507.000000, -79.500000, -286.500000,   1.195070, -38.969648, -63.486880,   0.803468,  -0.278463,   0.183834,  -0.492983, 
31148,  -0.095169,  -6.203118,   7.605638, -24.198948,  20.241626, -24.500082,  -0.475784,   1.108673,  -0.234829, -510.000000, -76.500000, -279.000000,   1.185612, -39.218228, -63.798492,   0.801505,  -0.279743,   0.185599,  -0.494788, 
31149,  -0.103644,  -6.335199,   7.469157, -23.707318,  21.169868, -25.418092,  -0.476656,   1.101794,  -0.221794, -510.000000, -78.000000, -274.500000,   1.171776, -39.477260, -64.120676,   0.799458,  -0.281089,   0.187412,  -0.496653, 
31150,  -0.103126,  -6.508000,   7.283732, -23.918240,  22.223134, -26.559194,  -0.482435,   1.103698,  -0.211494, -513.000000, -76.500000, -271.500000,   1.161319, -39.763920, -64.457436,   0.797273,  -0.282577,   0.189412,  -0.498553, 
31151,  -0.203909,  -6.726390,   7.049127, -25.055462,  23.412588, -27.577540,  -0.493481,   1.109948,  -0.204505, -519.000000, -73.500000, -270.000000,   1.165131, -40.092796, -64.811088,   0.794924,  -0.284258,   0.191747,  -0.500454, 
31152,  -0.262766,  -6.811114,   6.977811, -27.276602,  24.418002, -28.541468,  -0.490787,   1.103972,  -0.219597, -517.500000, -76.500000, -274.500000,   1.176483, -40.456672, -65.179748,   0.792419,  -0.286105,   0.194334,  -0.502362, 
31153,  -0.347379,  -6.856811,   6.949410, -29.920050,  25.300792, -29.320766,  -0.482827,   1.093649,  -0.231376, -513.000000, -81.000000, -277.500000,   1.197458, -40.844408, -65.561548,   0.789811,  -0.288039,   0.197139,  -0.504287, 
31154,  -0.358261,  -6.833812,   6.998329, -32.152020,  26.138974, -29.939666,  -0.488264,   1.097182,  -0.230151, -516.000000, -79.500000, -277.500000,   1.219263, -41.250724, -65.953704,   0.787091,  -0.290057,   0.200069,  -0.506223, 
31155,  -0.373729,  -6.765893,   7.052555, -33.907276,  26.631418, -30.106906,  -0.499978,   1.102981,  -0.195360, -522.000000, -75.000000, -267.000000,   1.238726, -41.651948, -66.352556,   0.784334,  -0.292019,   0.202990,  -0.508198, 
31156,  -0.212045,  -6.685230,   7.176570, -34.479548,  26.953286, -30.046574,  -0.502346,   1.107779,  -0.198996, -523.500000, -73.500000, -268.500000,   1.242431, -42.033400, -66.753600,   0.781585,  -0.293894,   0.205736,  -0.510250, 
31157,  -0.205726,  -6.642074,   7.259531, -34.004128,  27.007398, -29.880818,  -0.496942,   1.098634,  -0.219526, -520.500000, -78.000000, -274.500000,   1.243132, -42.386480, -67.155056,   0.778889,  -0.295570,   0.208349,  -0.512345, 
31158,  -0.213933,  -6.605069,   7.291692, -33.328728,  27.060206, -29.492412,  -0.496007,   1.076093,  -0.218200, -519.000000, -85.500000, -273.000000,   1.242562, -42.718144, -67.554752,   0.776242,  -0.297093,   0.210865,  -0.514453, 
31159,  -0.184204,  -6.534624,   7.337404, -32.679496,  26.811484, -28.933654,  -0.498889,   1.078448,  -0.208224, -520.500000, -84.000000, -270.000000,   1.237494, -43.026180, -67.949632,   0.773645,  -0.298464,   0.213240,  -0.516560, 
31160,  -0.247217,  -6.492197,   7.361751, -31.428544,  26.616514, -28.417602,  -0.507003,   1.090763,  -0.182254, -525.000000, -78.000000, -262.500000,   1.232620, -43.313308, -68.338768,   0.771133,  -0.299695,   0.215521,  -0.518661, 
31161,  -0.256392,  -6.588434,   7.336305, -30.351456,  26.234956, -27.742388,  -0.509201,   1.096376,  -0.190428, -526.500000, -76.500000, -265.500000,   1.231336, -43.585928, -68.720968,   0.768699,  -0.300817,   0.217755,  -0.520728, 
31162,  -0.234693,  -6.603126,   7.244916, -29.410296,  26.005034, -27.048572,  -0.503063,   1.098908,  -0.200150, -523.500000, -76.500000, -268.500000,   1.234252, -43.852192, -69.096568,   0.766286,  -0.301866,   0.219972,  -0.522721, 
31163,  -0.302307,  -6.566576,   7.263583, -28.481818,  25.628180, -26.487088,  -0.504293,   1.087594,  -0.187693, -523.500000, -79.500000, -264.000000,   1.238112, -44.099988, -69.465704,   0.763940,  -0.302786,   0.222100,  -0.524690, 
31164,  -0.308371,  -6.742222,   7.209452, -27.193816,  25.400012, -26.068878,  -0.510806,   1.077820,  -0.188200, -526.500000, -82.500000, -264.000000,   1.242397, -44.351908, -69.828640,   0.761616,  -0.303736,   0.224245,  -0.526603, 
31165,  -0.321320,  -6.741189,   7.141618, -25.916334,  25.089322, -25.555556,  -0.510276,   1.083070,  -0.192160, -526.500000, -81.000000, -265.500000,   1.253718, -44.590520, -70.186792,   0.759366,  -0.304567,   0.226372,  -0.528487, 
31166,  -0.357283,  -6.848061,   7.031967, -24.727292,  24.919636, -24.953668,  -0.512223,   1.062884,  -0.180858, -526.500000, -87.000000, -261.000000,   1.268472, -44.833672, -70.539536,   0.757119,  -0.305408,   0.228532,  -0.530300, 
31167,  -0.262724,  -6.959988,   6.883807, -24.396810,  24.545456, -24.527332,  -0.523052,   1.037723,  -0.173698, -531.000000, -94.500000, -258.000000,   1.279687, -45.084276, -70.886744,   0.754859,  -0.306312,   0.230693,  -0.532056, 
31168,  -0.297524,  -6.965714,   6.932003, -24.476876,  24.336248, -24.108386,  -0.524003,   1.057457,  -0.184677, -532.500000, -88.500000, -262.500000,   1.293056, -45.334604, -71.229840,   0.752612,  -0.307199,   0.232861,  -0.533765, 
31169,  -0.213214,  -7.023619,   6.815937, -24.530766,  24.257212, -23.737128,  -0.526184,   1.065877,  -0.183198, -534.000000, -85.500000, -262.500000,   1.294540, -45.587160, -71.568040,   0.750363,  -0.308160,   0.234958,  -0.535466, 
31170,  -0.262084,  -6.984101,   6.891533, -24.506618,  24.055262, -23.400064,  -0.532151,   1.064159,  -0.178012, -537.000000, -85.500000, -261.000000,   1.299663, -45.833744, -71.903416,   0.748138,  -0.309057,   0.237049,  -0.537136, 
31171,  -0.250786,  -6.914867,   6.887075, -24.001870,  23.840838, -22.965102,  -0.532339,   1.060538,  -0.183127, -537.000000, -87.000000, -262.500000,   1.299706, -46.059804, -72.234336,   0.745971,  -0.309841,   0.239003,  -0.538821, 
31172,  -0.290175,  -7.005182,   6.849409, -23.353846,  23.540974, -22.552318,  -0.541717,   1.055926,  -0.164005, -541.500000, -87.000000, -256.500000,   1.302321, -46.284108, -72.560304,   0.743839,  -0.310606,   0.240960,  -0.540467, 
31173,  -0.321989,  -7.060960,   6.795165, -23.100862,  23.250242, -22.076036,  -0.547667,   1.057015,  -0.149167, -544.500000, -85.500000, -252.000000,   1.312299, -46.509540, -72.880704,   0.741740,  -0.311346,   0.242961,  -0.542045, 
31174,  -0.326300,  -7.144852,   6.722749, -23.165054,  22.834054, -21.535852,  -0.544769,   1.057466,  -0.149491, -543.000000, -85.500000, -252.000000,   1.323466, -46.746236, -73.195624,   0.739626,  -0.312152,   0.245010,  -0.543544, 
31175,  -0.317146,  -7.180983,   6.642463, -23.714502,  22.388120, -20.844888,  -0.541513,   1.062353,  -0.149238, -541.500000, -84.000000, -252.000000,   1.331094, -46.993304, -73.503288,   0.737495,  -0.313042,   0.247068,  -0.544966, 
31176,  -0.300144,  -7.214371,   6.552338, -24.686020,  22.069722, -20.339074,  -0.547292,   1.064257,  -0.138937, -544.500000, -82.500000, -249.000000,   1.340823, -47.252684, -73.804568,   0.735368,  -0.314008,   0.249189,  -0.546311, 
31177,  -0.384705,  -7.230985,   6.561665, -25.615864,  21.709394, -19.895426,  -0.547838,   1.056200,  -0.144630, -544.500000, -85.500000, -250.500000,   1.353705, -47.512256, -74.100288,   0.733276,  -0.314966,   0.251323,  -0.547608, 
31178,  -0.346538,  -7.247309,   6.570266, -26.745118,  21.526970, -19.544616,  -0.548368,   1.050950,  -0.140670, -544.500000, -87.000000, -249.000000,   1.363442, -47.787824, -74.390264,   0.731166,  -0.316048,   0.253507,  -0.548837, 
31179,  -0.298506,  -7.323097,   6.475686, -27.880818,  21.291780, -19.076844,  -0.555581,   1.035112,  -0.132679, -547.500000, -91.500000, -246.000000,   1.373438, -48.071772, -74.676488,   0.729023,  -0.317170,   0.255720,  -0.549996, 
31180,  -0.279359,  -7.303571,   6.490465, -29.093576,  21.224366, -18.888332,  -0.558479,   1.034660,  -0.132355, -549.000000, -91.500000, -246.000000,   1.378318, -48.368020, -74.959072,   0.726842,  -0.318389,   0.257954,  -0.551104, 
31181,  -0.281413,  -7.356692,   6.425431, -30.186956,  21.267456, -18.684940,  -0.557404,   1.047967,  -0.130622, -549.000000, -87.000000, -246.000000,   1.385750, -48.670168, -75.240200,   0.724662,  -0.319630,   0.260237,  -0.552179, 
31182,  -0.359767,  -7.439495,   6.353445, -31.196718,  21.346158, -18.630844,  -0.566986,   1.036927,  -0.126268, -553.500000, -90.000000, -244.500000,   1.395849, -48.995464, -75.521552,   0.722425,  -0.320997,   0.262659,  -0.553190, 
31183,  -0.362439,  -7.457291,   6.395315, -32.296914,  21.287728, -18.374212,  -0.569867,   1.039282,  -0.116292, -555.000000, -88.500000, -241.500000,   1.411107, -49.322712, -75.801792,   0.720196,  -0.322341,   0.265125,  -0.554164, 
31184,  -0.426344,  -7.445146,   6.359437, -32.683220,  21.343258, -18.125096,  -0.569338,   1.044532,  -0.120252, -555.000000, -87.000000, -243.000000,   1.429217, -49.655692, -76.080280,   0.717940,  -0.323690,   0.267632,  -0.555077, 
31185,  -0.410867,  -7.481811,   6.340052, -32.883984,  21.078762, -17.749076,  -0.566986,   1.036927,  -0.126268, -553.500000, -90.000000, -244.500000,   1.447080, -49.983224, -76.355496,   0.715709,  -0.325001,   0.270106,  -0.555971, 
31186,  -0.386704,  -7.569094,   6.193222, -32.998616,  20.831602, -17.424016,  -0.564088,   1.037378,  -0.126592, -552.000000, -90.000000, -244.500000,   1.462379, -50.326952, -76.627296,   0.713447,  -0.326426,   0.272642,  -0.556807, 
31187,  -0.317904,  -7.733342,   6.026607, -34.176952,  20.720988, -16.969008,  -0.563542,   1.045435,  -0.120900, -552.000000, -87.000000, -243.000000,   1.472395, -50.694336, -76.895408,   0.711125,  -0.328023,   0.275259,  -0.557572, 
31188,  -0.339816,  -7.769700,   5.923729, -35.962840,  20.761024, -16.900942,  -0.563542,   1.045435,  -0.120900, -552.000000, -87.000000, -243.000000,   1.484583, -51.096572, -77.162552,   0.708693,  -0.329808,   0.278057,  -0.558216, 
31189,  -0.320795,  -7.865956,   5.845904, -37.980288,  20.837348, -16.799968,  -0.569338,   1.044532,  -0.120252, -555.000000, -87.000000, -243.000000,   1.493855, -51.518868, -77.429632,   0.706196,  -0.331719,   0.280944,  -0.558808, 
31190,  -0.297615,  -7.925094,   5.820069, -39.970524,  21.074098, -16.626223,  -0.573107,   1.037201,  -0.106893, -556.500000, -88.500000, -238.500000,   1.498783, -51.961752, -77.697008,   0.703619,  -0.333761,   0.283912,  -0.559349, 
31191,  -0.323915,  -7.947955,   5.777365, -41.816800,  21.105950, -16.445827,  -0.558788,   1.038644,  -0.103975, -549.000000, -88.500000, -237.000000,   1.509425, -52.420112, -77.963424,   0.700992,  -0.335848,   0.286989,  -0.559798, 
31192,  -0.352644,  -7.994404,   5.713973, -43.173688,  21.127766, -16.268923,  -0.549923,   1.040813,  -0.109485, -544.500000, -88.500000, -238.500000,   1.519532, -52.892732, -78.229440,   0.698325,  -0.338013,   0.290141,  -0.560200, 
31193,  -0.378795,  -7.980899,   5.817065, -44.033040,  21.095038, -16.096209,  -0.565847,   1.020813,  -0.110175, -552.000000, -94.500000, -238.500000,   1.534532, -53.363944, -78.494216,   0.695685,  -0.340137,   0.293325,  -0.560576, 
31194,  -0.360550,  -7.970837,   5.768224, -42.375596,  21.155008, -15.798390,  -0.571610,   1.025524,  -0.090222, -555.000000, -91.500000, -232.500000,   1.544961, -53.798740, -78.756312,   0.693133,  -0.342046,   0.296295,  -0.561013, 
31195,  -0.239541,  -8.118501,   5.468042, -42.779344,  21.183888, -15.549938,  -0.578090,   1.021363,  -0.071424, -558.000000, -91.500000, -226.500000,   1.549866, -54.273516, -79.018408,   0.690430,  -0.344201,   0.299430,  -0.561337, 
31196,  -0.330899,  -8.266834,   5.353359, -44.477940,  21.384354, -15.382331,  -0.578620,   1.016113,  -0.067464, -558.000000, -93.000000, -225.000000,   1.559551, -54.772464, -79.280832,   0.687670,  -0.346466,   0.302725,  -0.561578, 
31197,  -0.324509,  -8.403152,   5.238821, -46.891104,  21.408760, -15.173501,  -0.572278,   1.025072,  -0.062419, -555.000000, -90.000000, -223.500000,   1.566062, -55.308220, -79.543552,   0.684763,  -0.348939,   0.306183,  -0.561699, 
31198,  -0.330076,  -8.256128,   5.315011, -48.729380,  21.378232, -15.011532,  -0.570268,   1.015838,  -0.059360, -553.500000, -93.000000, -222.000000,   1.571606, -55.837576, -79.804224,   0.681885,  -0.351370,   0.309609,  -0.561817, 
